instrResp1.keys,instrResp1.rt,instr1_loop.thisRepN,instr1_loop.thisTrialN,instr1_loop.thisN,instr1_loop.thisIndex,instr1_loop.ran,instrOrd1,participant,age,gender,handedness,date,expName,psychopyVersion,OS,frameRate,instrResp5.keys,instrResp5.rt,instrResp6.keys,instrResp6.rt,instrResp3.keys,instrResp3.rt,instr2_loop.thisRepN,instr2_loop.thisTrialN,instr2_loop.thisN,instr2_loop.thisIndex,instr2_loop.ran,instrOrd2,instrEGresp.keys,instrEGresp.rt,instrHint2Resp.keys,instrHint2Resp.rt,instrRespSCH.keys,instr3_loop.thisRepN,instr3_loop.thisTrialN,instr3_loop.thisN,instr3_loop.thisIndex,instr3_loop.ran,instrOrd3,instrHint3Resp.keys,instrHint3Resp.rt,instrResp10.keys,instrResp10.rt,pStudy_loop.thisRepN,pStudy_loop.thisTrialN,pStudy_loop.thisN,pStudy_loop.thisIndex,pStudy_loop.ran,pTarg,psPresen_loop.thisRepN,psPresen_loop.thisTrialN,psPresen_loop.thisN,psPresen_loop.thisIndex,psPresen_loop.ran,ptHint_loop.thisRepN,ptHint_loop.thisTrialN,ptHint_loop.thisN,ptHint_loop.thisIndex,ptHint_loop.ran,pTestResp.keys,pTestResp.corr,pTestResp.rt,pTest_loop.thisRepN,pTest_loop.thisTrialN,pTest_loop.thisN,pTest_loop.thisIndex,pTest_loop.ran,ptStim,pCorAns,pTBR_loop.thisRepN,pTBR_loop.thisTrialN,pTBR_loop.thisN,pTBR_loop.thisIndex,pTBR_loop.ran,psResp.keys,psResp.corr,pSearch_loop.thisRepN,pSearch_loop.thisTrialN,pSearch_loop.thisN,pSearch_loop.thisIndex,pSearch_loop.ran,pStim,practice_loop.thisRepN,practice_loop.thisTrialN,practice_loop.thisN,practice_loop.thisIndex,practice_loop.ran,pStudyOrd,pTest1,pTest2,pTest3,pSearch,expStaResp.keys,expStaResp.rt,stim17_loop.thisRepN,stim17_loop.thisTrialN,stim17_loop.thisN,stim17_loop.thisIndex,stim17_loop.ran,cate,subCate,stimulus,sub30_loop.thisRepN,sub30_loop.thisTrialN,sub30_loop.thisN,sub30_loop.thisIndex,sub30_loop.ran,stimSubCate,altDistrStim_loop.thisRepN,altDistrStim_loop.thisTrialN,altDistrStim_loop.thisN,altDistrStim_loop.thisIndex,altDistrStim_loop.ran,distr_loop.thisRepN,distr_loop.thisTrialN,distr_loop.thisN,distr_loop.thisIndex,distr_loop.ran,chooseDistr_loop.thisRepN,chooseDistr_loop.thisTrialN,chooseDistr_loop.thisN,chooseDistr_loop.thisIndex,chooseDistr_loop.ran,distrIndx,study_loop.thisRepN,study_loop.thisTrialN,study_loop.thisN,study_loop.thisIndex,study_loop.ran,study_presen.thisRepN,study_presen.thisTrialN,study_presen.thisN,study_presen.thisIndex,study_presen.ran,testHint_presen.thisRepN,testHint_presen.thisTrialN,testHint_presen.thisN,testHint_presen.thisIndex,testHint_presen.ran,testResp.keys,testResp.corr,testResp.rt,testsize,condTest,test_loop.thisRepN,test_loop.thisTrialN,test_loop.thisN,test_loop.thisIndex,test_loop.ran,testIndx,TBR_loop.thisRepN,TBR_loop.thisTrialN,TBR_loop.thisN,TBR_loop.thisIndex,TBR_loop.ran,schResp.keys,schResp.corr,schResp.rt,setsize,subCategory,category,cond,stimImg,sch_loop.thisRepN,sch_loop.thisTrialN,sch_loop.thisN,sch_loop.thisIndex,sch_loop.ran,trialIndx,brkResp.keys,brkResp.rt,blockOrd.thisRepN,blockOrd.thisTrialN,blockOrd.thisN,blockOrd.thisIndex,blockOrd.ran,stimCateList,stimCate,testOrd
space,52.71066,0,0,0,0,1,Instructions/instr1.png,5e4d8eda83dc301d9395adfb,29,M,R,2020-09-10_09h45.35.270,Hybrid_Search_Task,2020.2.3,Win32,60,,,,,,,,,,,,,,,,,,,,,,,,,,,,,,,,,,,,,,,,,,,,,,,,,,,,,,,,,,,,,,,,,,,,,,,,,,,,,,,,,,,,,,,,,,,,,,,,,,,,,,,,,,,,,,,,,,,,,,,,,,,,,,,,,,,,,,,,,,,,,,,,,,,,,,,,,,,,,,,,,,,
space,11.95227,0,1,1,1,1,Instructions/instr2.png,5e4d8eda83dc301d9395adfb,29,M,R,2020-09-10_09h45.35.270,Hybrid_Search_Task,2020.2.3,Win32,60,,,,,,,,,,,,,,,,,,,,,,,,,,,,,,,,,,,,,,,,,,,,,,,,,,,,,,,,,,,,,,,,,,,,,,,,,,,,,,,,,,,,,,,,,,,,,,,,,,,,,,,,,,,,,,,,,,,,,,,,,,,,,,,,,,,,,,,,,,,,,,,,,,,,,,,,,,,,,,,,,,,
space,9.08356,0,2,2,2,1,Instructions/instr3.png,5e4d8eda83dc301d9395adfb,29,M,R,2020-09-10_09h45.35.270,Hybrid_Search_Task,2020.2.3,Win32,60,,,,,,,,,,,,,,,,,,,,,,,,,,,,,,,,,,,,,,,,,,,,,,,,,,,,,,,,,,,,,,,,,,,,,,,,,,,,,,,,,,,,,,,,,,,,,,,,,,,,,,,,,,,,,,,,,,,,,,,,,,,,,,,,,,,,,,,,,,,,,,,,,,,,,,,,,,,,,,,,,,,
space,19.14055,0,3,3,3,1,Instructions/instr4.png,5e4d8eda83dc301d9395adfb,29,M,R,2020-09-10_09h45.35.270,Hybrid_Search_Task,2020.2.3,Win32,60,,,,,,,,,,,,,,,,,,,,,,,,,,,,,,,,,,,,,,,,,,,,,,,,,,,,,,,,,,,,,,,,,,,,,,,,,,,,,,,,,,,,,,,,,,,,,,,,,,,,,,,,,,,,,,,,,,,,,,,,,,,,,,,,,,,,,,,,,,,,,,,,,,,,,,,,,,,,,,,,,,,
,,,,,,,,5e4d8eda83dc301d9395adfb,29,M,R,2020-09-10_09h45.35.270,Hybrid_Search_Task,2020.2.3,Win32,60,z,18.368405,m,5.016625,space,36.72711,0,0,0,0,1,Instructions/instr7.png,,,,,,,,,,,,,,,,,,,,,,,,,,,,,,,,,,,,,,,,,,,,,,,,,,,,,,,,,,,,,,,,,,,,,,,,,,,,,,,,,,,,,,,,,,,,,,,,,,,,,,,,,,,,,,,,,,,,,,,,,,,,,,,,,,,,,,,,,,,,,,,,,,,,,,,
,,,,,,,,5e4d8eda83dc301d9395adfb,29,M,R,2020-09-10_09h45.35.270,Hybrid_Search_Task,2020.2.3,Win32,60,,,,,space,57.343645,0,1,1,1,1,Instructions/instr8.png,,,,,,,,,,,,,,,,,,,,,,,,,,,,,,,,,,,,,,,,,,,,,,,,,,,,,,,,,,,,,,,,,,,,,,,,,,,,,,,,,,,,,,,,,,,,,,,,,,,,,,,,,,,,,,,,,,,,,,,,,,,,,,,,,,,,,,,,,,,,,,,,,,,,,,,
,,,,,,,,5e4d8eda83dc301d9395adfb,29,M,R,2020-09-10_09h45.35.270,Hybrid_Search_Task,2020.2.3,Win32,60,,,,,space,13.297375,0,2,2,2,1,Instructions/instr9.png,,,,,,,,,,,,,,,,,,,,,,,,,,,,,,,,,,,,,,,,,,,,,,,,,,,,,,,,,,,,,,,,,,,,,,,,,,,,,,,,,,,,,,,,,,,,,,,,,,,,,,,,,,,,,,,,,,,,,,,,,,,,,,,,,,,,,,,,,,,,,,,,,,,,,,,
,,,,,,,,5e4d8eda83dc301d9395adfb,29,M,R,2020-09-10_09h45.35.270,Hybrid_Search_Task,2020.2.3,Win32,60,,,,,,,,,,,,,m,6.799525,space,5.18433,,0,0,0,1,1,Instructions/s3.jpg,,,,,,,,,,,,,,,,,,,,,,,,,,,,,,,,,,,,,,,,,,,,,,,,,,,,,,,,,,,,,,,,,,,,,,,,,,,,,,,,,,,,,,,,,,,,,,,,,,,,,,,,,,,,,,,,,,,,,,,,,,,,,,,,,,,,,,,,,,,,
,,,,,,,,5e4d8eda83dc301d9395adfb,29,M,R,2020-09-10_09h45.35.270,Hybrid_Search_Task,2020.2.3,Win32,60,,,,,,,,,,,,,,,,,,0,1,1,0,1,Instructions/s2.jpg,,,,,,,,,,,,,,,,,,,,,,,,,,,,,,,,,,,,,,,,,,,,,,,,,,,,,,,,,,,,,,,,,,,,,,,,,,,,,,,,,,,,,,,,,,,,,,,,,,,,,,,,,,,,,,,,,,,,,,,,,,,,,,,,,,,,,,,,,,,,
,,,,,,,,5e4d8eda83dc301d9395adfb,29,M,R,2020-09-10_09h45.35.270,Hybrid_Search_Task,2020.2.3,Win32,60,,,,,,,,,,,,,,,,,,,,,,,,space,49.11639,space,7.03993,0,0,0,1,1,Practice/PracTarg/02.jpg,,,,,,,,,,,,,,,,,,,,,,,,,,,,,,,,,,,,,,,,,,,,,,,,,,,,,,,,,,,,,,,,,,,,,,,,,,,,,,,,,,,,,,,,,,,,,,,,,,,,,,,,,,,,,,,,,,,,,,,,,,,,,,,,,,
,,,,,,,,5e4d8eda83dc301d9395adfb,29,M,R,2020-09-10_09h45.35.270,Hybrid_Search_Task,2020.2.3,Win32,60,,,,,,,,,,,,,,,,,,,,,,,,,,,,0,1,1,0,1,Practice/PracTarg/01.jpg,,,,,,,,,,,,,,,,,,,,,,,,,,,,,,,,,,,,,,,,,,,,,,,,,,,,,,,,,,,,,,,,,,,,,,,,,,,,,,,,,,,,,,,,,,,,,,,,,,,,,,,,,,,,,,,,,,,,,,,,,,,,,,,,,,
,,,,,,,,5e4d8eda83dc301d9395adfb,29,M,R,2020-09-10_09h45.35.270,Hybrid_Search_Task,2020.2.3,Win32,60,,,,,,,,,,,,,,,,,,,,,,,,,,,,,,,,,,0,0,0,0,1,,,,,,,,,,,,,,,,,,,,,,,,,,,,,,,,,,,,,,,,,,,,,,,,,,,,,,,,,,,,,,,,,,,,,,,,,,,,,,,,,,,,,,,,,,,,,,,,,,,,,,,,,,,,,,,,,,,,,,,,,,,,,
,,,,,,,,5e4d8eda83dc301d9395adfb,29,M,R,2020-09-10_09h45.35.270,Hybrid_Search_Task,2020.2.3,Win32,60,,,,,,,,,,,,,,,,,,,,,,,,,,,,,,,,,,,,,,,0,0,0,0,1,,,,,,,,,,,,,,,,,,,,,,,,,,,,,,,,,,,,,,,,,,,,,,,,,,,,,,,,,,,,,,,,,,,,,,,,,,,,,,,,,,,,,,,,,,,,,,,,,,,,,,,,,,,,,,,,,,,,,,,,
,,,,,,,,5e4d8eda83dc301d9395adfb,29,M,R,2020-09-10_09h45.35.270,Hybrid_Search_Task,2020.2.3,Win32,60,,,,,,,,,,,,,,,,,,,,,,,,,,,,,,,,,,,,,,,,,,,,z,1,1.74908,0,0,0,0,1,Practice/PracTarg/01.jpg,z,,,,,,,,,,,,,,,,,,,,,,,,,,,,,,,,,,,,,,,,,,,,,,,,,,,,,,,,,,,,,,,,,,,,,,,,,,,,,,,,,,,,,,,,,,,,,,,,,,,,,,,,,,,,,,
,,,,,,,,5e4d8eda83dc301d9395adfb,29,M,R,2020-09-10_09h45.35.270,Hybrid_Search_Task,2020.2.3,Win32,60,,,,,,,,,,,,,,,,,,,,,,,,,,,,,,,,,,,,,,,,,,,,m,1,1.01669,0,1,1,2,1,Practice/PracTest/01_1.jpg,m,,,,,,,,,,,,,,,,,,,,,,,,,,,,,,,,,,,,,,,,,,,,,,,,,,,,,,,,,,,,,,,,,,,,,,,,,,,,,,,,,,,,,,,,,,,,,,,,,,,,,,,,,,,,,,
,,,,,,,,5e4d8eda83dc301d9395adfb,29,M,R,2020-09-10_09h45.35.270,Hybrid_Search_Task,2020.2.3,Win32,60,,,,,,,,,,,,,,,,,,,,,,,,,,,,,,,,,,,,,,,,,,,,m,1,1.3947,0,2,2,3,1,Practice/PracTest/02_1.jpg,m,,,,,,,,,,,,,,,,,,,,,,,,,,,,,,,,,,,,,,,,,,,,,,,,,,,,,,,,,,,,,,,,,,,,,,,,,,,,,,,,,,,,,,,,,,,,,,,,,,,,,,,,,,,,,,
,,,,,,,,5e4d8eda83dc301d9395adfb,29,M,R,2020-09-10_09h45.35.270,Hybrid_Search_Task,2020.2.3,Win32,60,,,,,,,,,,,,,,,,,,,,,,,,,,,,,,,,,,,,,,,,,,,,z,1,0.896545,0,3,3,1,1,Practice/PracTarg/02.jpg,z,,,,,,,,,,,,,,,,,,,,,,,,,,,,,,,,,,,,,,,,,,,,,,,,,,,,,,,,,,,,,,,,,,,,,,,,,,,,,,,,,,,,,,,,,,,,,,,,,,,,,,,,,,,,,,
,,,,,,,,5e4d8eda83dc301d9395adfb,29,M,R,2020-09-10_09h45.35.270,Hybrid_Search_Task,2020.2.3,Win32,60,,,,,,,,,,,,,,,,,,,,,,,,,,,,,,,,,,,,,,,,,,,,,,,,,,,,,,0,0,0,0,1,,,,,,,,,,,,,,,,,,,,,,,,,,,,,,,,,,,,,,,,,,,,,,,,,,,,,,,,,,,,,,,,,,,,,,,,,,,,,,,,,,,,,,,,,,,,,,,,,,,,,,,,,
,,,,,,,,5e4d8eda83dc301d9395adfb,29,M,R,2020-09-10_09h45.35.270,Hybrid_Search_Task,2020.2.3,Win32,60,,,,,,,,,,,,,,,,,,,,,,,,,,,,,,,,,,,,,,,0,0,0,0,1,,,,,,,,,,,,,,,,,,,,,,,,,,,,,,,,,,,,,,,,,,,,,,,,,,,,,,,,,,,,,,,,,,,,,,,,,,,,,,,,,,,,,,,,,,,,,,,,,,,,,,,,,,,,,,,,,,,,,,,,
,,,,,,,,5e4d8eda83dc301d9395adfb,29,M,R,2020-09-10_09h45.35.270,Hybrid_Search_Task,2020.2.3,Win32,60,,,,,,,,,,,,,,,,,,,,,,,,,,,,,,,,,,,,,,,,,,,,m,1,8.087485,0,0,0,3,1,Practice/PracTest/02_2.jpg,m,,,,,,,,,,,,,,,,,,,,,,,,,,,,,,,,,,,,,,,,,,,,,,,,,,,,,,,,,,,,,,,,,,,,,,,,,,,,,,,,,,,,,,,,,,,,,,,,,,,,,,,,,,,,,,
,,,,,,,,5e4d8eda83dc301d9395adfb,29,M,R,2020-09-10_09h45.35.270,Hybrid_Search_Task,2020.2.3,Win32,60,,,,,,,,,,,,,,,,,,,,,,,,,,,,,,,,,,,,,,,,,,,,z,1,1.636905,0,1,1,0,1,Practice/PracTarg/01.jpg,z,,,,,,,,,,,,,,,,,,,,,,,,,,,,,,,,,,,,,,,,,,,,,,,,,,,,,,,,,,,,,,,,,,,,,,,,,,,,,,,,,,,,,,,,,,,,,,,,,,,,,,,,,,,,,,
,,,,,,,,5e4d8eda83dc301d9395adfb,29,M,R,2020-09-10_09h45.35.270,Hybrid_Search_Task,2020.2.3,Win32,60,,,,,,,,,,,,,,,,,,,,,,,,,,,,,,,,,,,,,,,,,,,,m,1,1.103395,0,2,2,2,1,Practice/PracTest/01_2.jpg,m,,,,,,,,,,,,,,,,,,,,,,,,,,,,,,,,,,,,,,,,,,,,,,,,,,,,,,,,,,,,,,,,,,,,,,,,,,,,,,,,,,,,,,,,,,,,,,,,,,,,,,,,,,,,,,
,,,,,,,,5e4d8eda83dc301d9395adfb,29,M,R,2020-09-10_09h45.35.270,Hybrid_Search_Task,2020.2.3,Win32,60,,,,,,,,,,,,,,,,,,,,,,,,,,,,,,,,,,,,,,,,,,,,m,0,0.957885,0,3,3,1,1,Practice/PracTarg/02.jpg,z,,,,,,,,,,,,,,,,,,,,,,,,,,,,,,,,,,,,,,,,,,,,,,,,,,,,,,,,,,,,,,,,,,,,,,,,,,,,,,,,,,,,,,,,,,,,,,,,,,,,,,,,,,,,,,
,,,,,,,,5e4d8eda83dc301d9395adfb,29,M,R,2020-09-10_09h45.35.270,Hybrid_Search_Task,2020.2.3,Win32,60,,,,,,,,,,,,,,,,,,,,,,,,,,,,,,,,,,,,,,,,,,,,,,,,,,,,,,1,0,1,0,1,,,,,,,,,,,,,,,,,,,,,,,,,,,,,,,,,,,,,,,,,,,,,,,,,,,,,,,,,,,,,,,,,,,,,,,,,,,,,,,,,,,,,,,,,,,,,,,,,,,,,,,,,
,,,,,,,,5e4d8eda83dc301d9395adfb,29,M,R,2020-09-10_09h45.35.270,Hybrid_Search_Task,2020.2.3,Win32,60,,,,,,,,,,,,,,,,,,,,,,,,,,,,0,0,0,1,1,Practice/PracTarg/02.jpg,,,,,,,,,,,,,,,,,,,,,,,,,,,,,,,,,,,,,,,,,,,,,,,,,,,,,,,,,,,,,,,,,,,,,,,,,,,,,,,,,,,,,,,,,,,,,,,,,,,,,,,,,,,,,,,,,,,,,,,,,,,,,,,,,,
,,,,,,,,5e4d8eda83dc301d9395adfb,29,M,R,2020-09-10_09h45.35.270,Hybrid_Search_Task,2020.2.3,Win32,60,,,,,,,,,,,,,,,,,,,,,,,,,,,,0,1,1,0,1,Practice/PracTarg/01.jpg,,,,,,,,,,,,,,,,,,,,,,,,,,,,,,,,,,,,,,,,,,,,,,,,,,,,,,,,,,,,,,,,,,,,,,,,,,,,,,,,,,,,,,,,,,,,,,,,,,,,,,,,,,,,,,,,,,,,,,,,,,,,,,,,,,
,,,,,,,,5e4d8eda83dc301d9395adfb,29,M,R,2020-09-10_09h45.35.270,Hybrid_Search_Task,2020.2.3,Win32,60,,,,,,,,,,,,,,,,,,,,,,,,,,,,,,,,,,0,0,0,0,1,,,,,,,,,,,,,,,,,,,,,,,,,,,,,,,,,,,,,,,,,,,,,,,,,,,,,,,,,,,,,,,,,,,,,,,,,,,,,,,,,,,,,,,,,,,,,,,,,,,,,,,,,,,,,,,,,,,,,,,,,,,,,
,,,,,,,,5e4d8eda83dc301d9395adfb,29,M,R,2020-09-10_09h45.35.270,Hybrid_Search_Task,2020.2.3,Win32,60,,,,,,,,,,,,,,,,,,,,,,,,,,,,,,,,,,,,,,,0,0,0,0,1,,,,,,,,,,,,,,,,,,,,,,,,,,,,,,,,,,,,,,,,,,,,,,,,,,,,,,,,,,,,,,,,,,,,,,,,,,,,,,,,,,,,,,,,,,,,,,,,,,,,,,,,,,,,,,,,,,,,,,,,
,,,,,,,,5e4d8eda83dc301d9395adfb,29,M,R,2020-09-10_09h45.35.270,Hybrid_Search_Task,2020.2.3,Win32,60,,,,,,,,,,,,,,,,,,,,,,,,,,,,,,,,,,,,,,,,,,,,z,1,0.562095,0,0,0,1,1,Practice/PracTarg/02.jpg,z,,,,,,,,,,,,,,,,,,,,,,,,,,,,,,,,,,,,,,,,,,,,,,,,,,,,,,,,,,,,,,,,,,,,,,,,,,,,,,,,,,,,,,,,,,,,,,,,,,,,,,,,,,,,,,
,,,,,,,,5e4d8eda83dc301d9395adfb,29,M,R,2020-09-10_09h45.35.270,Hybrid_Search_Task,2020.2.3,Win32,60,,,,,,,,,,,,,,,,,,,,,,,,,,,,,,,,,,,,,,,,,,,,m,1,0.963285,0,1,1,2,1,Practice/PracTest/01_2.jpg,m,,,,,,,,,,,,,,,,,,,,,,,,,,,,,,,,,,,,,,,,,,,,,,,,,,,,,,,,,,,,,,,,,,,,,,,,,,,,,,,,,,,,,,,,,,,,,,,,,,,,,,,,,,,,,,
,,,,,,,,5e4d8eda83dc301d9395adfb,29,M,R,2020-09-10_09h45.35.270,Hybrid_Search_Task,2020.2.3,Win32,60,,,,,,,,,,,,,,,,,,,,,,,,,,,,,,,,,,,,,,,,,,,,z,1,0.5248,0,2,2,0,1,Practice/PracTarg/01.jpg,z,,,,,,,,,,,,,,,,,,,,,,,,,,,,,,,,,,,,,,,,,,,,,,,,,,,,,,,,,,,,,,,,,,,,,,,,,,,,,,,,,,,,,,,,,,,,,,,,,,,,,,,,,,,,,,
,,,,,,,,5e4d8eda83dc301d9395adfb,29,M,R,2020-09-10_09h45.35.270,Hybrid_Search_Task,2020.2.3,Win32,60,,,,,,,,,,,,,,,,,,,,,,,,,,,,,,,,,,,,,,,,,,,,z,0,1.39639,0,3,3,3,1,Practice/PracTest/02_2.jpg,m,,,,,,,,,,,,,,,,,,,,,,,,,,,,,,,,,,,,,,,,,,,,,,,,,,,,,,,,,,,,,,,,,,,,,,,,,,,,,,,,,,,,,,,,,,,,,,,,,,,,,,,,,,,,,,
,,,,,,,,5e4d8eda83dc301d9395adfb,29,M,R,2020-09-10_09h45.35.270,Hybrid_Search_Task,2020.2.3,Win32,60,,,,,,,,,,,,,,,,,,,,,,,,,,,,,,,,,,,,,,,,,,,,,,,,,,,,,,2,0,2,0,1,,,,,,,,,,,,,,,,,,,,,,,,,,,,,,,,,,,,,,,,,,,,,,,,,,,,,,,,,,,,,,,,,,,,,,,,,,,,,,,,,,,,,,,,,,,,,,,,,,,,,,,,,
,,,,,,,,5e4d8eda83dc301d9395adfb,29,M,R,2020-09-10_09h45.35.270,Hybrid_Search_Task,2020.2.3,Win32,60,,,,,,,,,,,,,,,,,,,,,,,,,,,,0,0,0,0,1,Practice/PracTarg/01.jpg,,,,,,,,,,,,,,,,,,,,,,,,,,,,,,,,,,,,,,,,,,,,,,,,,,,,,,,,,,,,,,,,,,,,,,,,,,,,,,,,,,,,,,,,,,,,,,,,,,,,,,,,,,,,,,,,,,,,,,,,,,,,,,,,,,
,,,,,,,,5e4d8eda83dc301d9395adfb,29,M,R,2020-09-10_09h45.35.270,Hybrid_Search_Task,2020.2.3,Win32,60,,,,,,,,,,,,,,,,,,,,,,,,,,,,0,1,1,1,1,Practice/PracTarg/02.jpg,,,,,,,,,,,,,,,,,,,,,,,,,,,,,,,,,,,,,,,,,,,,,,,,,,,,,,,,,,,,,,,,,,,,,,,,,,,,,,,,,,,,,,,,,,,,,,,,,,,,,,,,,,,,,,,,,,,,,,,,,,,,,,,,,,
,,,,,,,,5e4d8eda83dc301d9395adfb,29,M,R,2020-09-10_09h45.35.270,Hybrid_Search_Task,2020.2.3,Win32,60,,,,,,,,,,,,,,,,,,,,,,,,,,,,,,,,,,0,0,0,0,1,,,,,,,,,,,,,,,,,,,,,,,,,,,,,,,,,,,,,,,,,,,,,,,,,,,,,,,,,,,,,,,,,,,,,,,,,,,,,,,,,,,,,,,,,,,,,,,,,,,,,,,,,,,,,,,,,,,,,,,,,,,,,
,,,,,,,,5e4d8eda83dc301d9395adfb,29,M,R,2020-09-10_09h45.35.270,Hybrid_Search_Task,2020.2.3,Win32,60,,,,,,,,,,,,,,,,,,,,,,,,,,,,,,,,,,,,,,,0,0,0,0,1,,,,,,,,,,,,,,,,,,,,,,,,,,,,,,,,,,,,,,,,,,,,,,,,,,,,,,,,,,,,,,,,,,,,,,,,,,,,,,,,,,,,,,,,,,,,,,,,,,,,,,,,,,,,,,,,,,,,,,,,
,,,,,,,,5e4d8eda83dc301d9395adfb,29,M,R,2020-09-10_09h45.35.270,Hybrid_Search_Task,2020.2.3,Win32,60,,,,,,,,,,,,,,,,,,,,,,,,,,,,,,,,,,,,,,,,,,,,m,1,0.813825,0,0,0,3,1,Practice/PracTest/02_3.jpg,m,,,,,,,,,,,,,,,,,,,,,,,,,,,,,,,,,,,,,,,,,,,,,,,,,,,,,,,,,,,,,,,,,,,,,,,,,,,,,,,,,,,,,,,,,,,,,,,,,,,,,,,,,,,,,,
,,,,,,,,5e4d8eda83dc301d9395adfb,29,M,R,2020-09-10_09h45.35.270,Hybrid_Search_Task,2020.2.3,Win32,60,,,,,,,,,,,,,,,,,,,,,,,,,,,,,,,,,,,,,,,,,,,,z,1,0.82016,0,1,1,1,1,Practice/PracTarg/02.jpg,z,,,,,,,,,,,,,,,,,,,,,,,,,,,,,,,,,,,,,,,,,,,,,,,,,,,,,,,,,,,,,,,,,,,,,,,,,,,,,,,,,,,,,,,,,,,,,,,,,,,,,,,,,,,,,,
,,,,,,,,5e4d8eda83dc301d9395adfb,29,M,R,2020-09-10_09h45.35.270,Hybrid_Search_Task,2020.2.3,Win32,60,,,,,,,,,,,,,,,,,,,,,,,,,,,,,,,,,,,,,,,,,,,,z,1,0.682395,0,2,2,0,1,Practice/PracTarg/01.jpg,z,,,,,,,,,,,,,,,,,,,,,,,,,,,,,,,,,,,,,,,,,,,,,,,,,,,,,,,,,,,,,,,,,,,,,,,,,,,,,,,,,,,,,,,,,,,,,,,,,,,,,,,,,,,,,,
,,,,,,,,5e4d8eda83dc301d9395adfb,29,M,R,2020-09-10_09h45.35.270,Hybrid_Search_Task,2020.2.3,Win32,60,,,,,,,,,,,,,,,,,,,,,,,,,,,,,,,,,,,,,,,,,,,,m,1,0.647215,0,3,3,2,1,Practice/PracTest/01_3.jpg,m,,,,,,,,,,,,,,,,,,,,,,,,,,,,,,,,,,,,,,,,,,,,,,,,,,,,,,,,,,,,,,,,,,,,,,,,,,,,,,,,,,,,,,,,,,,,,,,,,,,,,,,,,,,,,,
,,,,,,,,5e4d8eda83dc301d9395adfb,29,M,R,2020-09-10_09h45.35.270,Hybrid_Search_Task,2020.2.3,Win32,60,,,,,,,,,,,,,,,,,,,,,,,,,,,,,,,,,,,,,,,,,,,,,,,,,,,,,,3,0,3,0,1,,,,,,,,,,,,,,,,,,,,,,,,,,,,,,,,,,,,,,,,,,,,,,,,,,,,,,,,,,,,,,,,,,,,,,,,,,,,,,,,,,,,,,,,,,,,,,,,,,,,,,,,,
,,,,,,,,5e4d8eda83dc301d9395adfb,29,M,R,2020-09-10_09h45.35.270,Hybrid_Search_Task,2020.2.3,Win32,60,,,,,,,,,,,,,,,,,,,,,,,,,,,,,,,,,,,,,,,0,0,0,0,1,,,,,,,,,,,,,,,,,,,,,,,,,,,,,,,,,,,,,,,,,,,,,,,,,,,,,,,,,,,,,,,,,,,,,,,,,,,,,,,,,,,,,,,,,,,,,,,,,,,,,,,,,,,,,,,,,,,,,,,,
,,,,,,,,5e4d8eda83dc301d9395adfb,29,M,R,2020-09-10_09h45.35.270,Hybrid_Search_Task,2020.2.3,Win32,60,,,,,,,,,,,,,,,,,,,,,,,,,,,,,,,,,,,,,,,,,,,,m,1,5.803935,0,0,0,3,1,Practice/PracTest/02_3.jpg,m,,,,,,,,,,,,,,,,,,,,,,,,,,,,,,,,,,,,,,,,,,,,,,,,,,,,,,,,,,,,,,,,,,,,,,,,,,,,,,,,,,,,,,,,,,,,,,,,,,,,,,,,,,,,,,
,,,,,,,,5e4d8eda83dc301d9395adfb,29,M,R,2020-09-10_09h45.35.270,Hybrid_Search_Task,2020.2.3,Win32,60,,,,,,,,,,,,,,,,,,,,,,,,,,,,,,,,,,,,,,,,,,,,z,1,0.91077,0,1,1,0,1,Practice/PracTarg/01.jpg,z,,,,,,,,,,,,,,,,,,,,,,,,,,,,,,,,,,,,,,,,,,,,,,,,,,,,,,,,,,,,,,,,,,,,,,,,,,,,,,,,,,,,,,,,,,,,,,,,,,,,,,,,,,,,,,
,,,,,,,,5e4d8eda83dc301d9395adfb,29,M,R,2020-09-10_09h45.35.270,Hybrid_Search_Task,2020.2.3,Win32,60,,,,,,,,,,,,,,,,,,,,,,,,,,,,,,,,,,,,,,,,,,,,z,1,0.67525,0,2,2,1,1,Practice/PracTarg/02.jpg,z,,,,,,,,,,,,,,,,,,,,,,,,,,,,,,,,,,,,,,,,,,,,,,,,,,,,,,,,,,,,,,,,,,,,,,,,,,,,,,,,,,,,,,,,,,,,,,,,,,,,,,,,,,,,,,
,,,,,,,,5e4d8eda83dc301d9395adfb,29,M,R,2020-09-10_09h45.35.270,Hybrid_Search_Task,2020.2.3,Win32,60,,,,,,,,,,,,,,,,,,,,,,,,,,,,,,,,,,,,,,,,,,,,m,1,0.763815,0,3,3,2,1,Practice/PracTest/01_3.jpg,m,,,,,,,,,,,,,,,,,,,,,,,,,,,,,,,,,,,,,,,,,,,,,,,,,,,,,,,,,,,,,,,,,,,,,,,,,,,,,,,,,,,,,,,,,,,,,,,,,,,,,,,,,,,,,,
,,,,,,,,5e4d8eda83dc301d9395adfb,29,M,R,2020-09-10_09h45.35.270,Hybrid_Search_Task,2020.2.3,Win32,60,,,,,,,,,,,,,,,,,,,,,,,,,,,,,,,,,,,,,,,,,,,,,,,,,,,,,,4,0,4,0,1,,,,,,,,,,,,,,,,,,,,,,,,,,,,,,,,,,,,,,,,,,,,,,,,,,,,,,,,,,,,,,,,,,,,,,,,,,,,,,,,,,,,,,,,,,,,,,,,,,,,,,,,,
,,,,,,,,5e4d8eda83dc301d9395adfb,29,M,R,2020-09-10_09h45.35.270,Hybrid_Search_Task,2020.2.3,Win32,60,,,,,,,,,,,,,,,,,,,,,,,,,,,,,,,,,,,,,,,,,,,,,,,,,,,,,m,,,,,,,0,0,0,0,12,1,Practice/PracSearch/3_3.jpg,,,,,,,,,,,,,,,,,,,,,,,,,,,,,,,,,,,,,,,,,,,,,,,,,,,,,,,,,,,,,,,,,,,,,,,,,,,,,,,,,,,,,,,,,,,,,,,,,
,,,,,,,,5e4d8eda83dc301d9395adfb,29,M,R,2020-09-10_09h45.35.270,Hybrid_Search_Task,2020.2.3,Win32,60,,,,,,,,,,,,,,,,,,,,,,,,,,,,,,,,,,,,,,,,,,,,,,,,,,,,,m,,,,,,,0,0,1,1,14,1,Practice/PracSearch/10_2.jpg,,,,,,,,,,,,,,,,,,,,,,,,,,,,,,,,,,,,,,,,,,,,,,,,,,,,,,,,,,,,,,,,,,,,,,,,,,,,,,,,,,,,,,,,,,,,,,,,,
,,,,,,,,5e4d8eda83dc301d9395adfb,29,M,R,2020-09-10_09h45.35.270,Hybrid_Search_Task,2020.2.3,Win32,60,,,,,,,,,,,,,,,,,,,,,,,,,,,,,,,,,,,,,,,,,,,,,,,,,,,,,m,,,,,,,0,0,2,2,16,1,Practice/PracSearch/11_1.jpg,,,,,,,,,,,,,,,,,,,,,,,,,,,,,,,,,,,,,,,,,,,,,,,,,,,,,,,,,,,,,,,,,,,,,,,,,,,,,,,,,,,,,,,,,,,,,,,,,
,,,,,,,,5e4d8eda83dc301d9395adfb,29,M,R,2020-09-10_09h45.35.270,Hybrid_Search_Task,2020.2.3,Win32,60,,,,,,,,,,,,,,,,,,,,,,,,,,,,,,,,,,,,,,,,,,,,,,,,,,,,,m,,,,,,,0,0,3,3,18,1,Practice/PracSearch/12_1.jpg,,,,,,,,,,,,,,,,,,,,,,,,,,,,,,,,,,,,,,,,,,,,,,,,,,,,,,,,,,,,,,,,,,,,,,,,,,,,,,,,,,,,,,,,,,,,,,,,,
,,,,,,,,5e4d8eda83dc301d9395adfb,29,M,R,2020-09-10_09h45.35.270,Hybrid_Search_Task,2020.2.3,Win32,60,,,,,,,,,,,,,,,,,,,,,,,,,,,,,,,,,,,,,,,,,,,,,,,,,,,,,m,,,,,,,0,0,4,4,17,1,Practice/PracSearch/11_2.jpg,,,,,,,,,,,,,,,,,,,,,,,,,,,,,,,,,,,,,,,,,,,,,,,,,,,,,,,,,,,,,,,,,,,,,,,,,,,,,,,,,,,,,,,,,,,,,,,,,
,,,,,,,,5e4d8eda83dc301d9395adfb,29,M,R,2020-09-10_09h45.35.270,Hybrid_Search_Task,2020.2.3,Win32,60,,,,,,,,,,,,,,,,,,,,,,,,,,,,,,,,,,,,,,,,,,,,,,,,,,,,,z,,,,,,,0,0,5,5,3,1,Practice/PracTarg/02.jpg,,,,,,,,,,,,,,,,,,,,,,,,,,,,,,,,,,,,,,,,,,,,,,,,,,,,,,,,,,,,,,,,,,,,,,,,,,,,,,,,,,,,,,,,,,,,,,,,,
,,,,,,,,5e4d8eda83dc301d9395adfb,29,M,R,2020-09-10_09h45.35.270,Hybrid_Search_Task,2020.2.3,Win32,60,,,,,,,,,,,,,,,,,,,,,,,,,,,,,,,,,,,,,,,,,,,,,,,,,,,,,m,,,,,,,0,0,6,6,5,1,Practice/PracSearch/1_2.jpg,,,,,,,,,,,,,,,,,,,,,,,,,,,,,,,,,,,,,,,,,,,,,,,,,,,,,,,,,,,,,,,,,,,,,,,,,,,,,,,,,,,,,,,,,,,,,,,,,
,,,,,,,,5e4d8eda83dc301d9395adfb,29,M,R,2020-09-10_09h45.35.270,Hybrid_Search_Task,2020.2.3,Win32,60,,,,,,,,,,,,,,,,,,,,,,,,,,,,,,,,,,,,,,,,,,,,,,,,,,,,,m,,,,,,,0,0,7,7,8,1,Practice/PracSearch/2_2.jpg,,,,,,,,,,,,,,,,,,,,,,,,,,,,,,,,,,,,,,,,,,,,,,,,,,,,,,,,,,,,,,,,,,,,,,,,,,,,,,,,,,,,,,,,,,,,,,,,,
,,,,,,,,5e4d8eda83dc301d9395adfb,29,M,R,2020-09-10_09h45.35.270,Hybrid_Search_Task,2020.2.3,Win32,60,,,,,,,,,,,,,,,,,,,,,,,,,,,,,,,,,,,,,,,,,,,,,,,,,,,,,m,,,,,,,0,0,8,8,11,1,Practice/PracSearch/3_2.jpg,,,,,,,,,,,,,,,,,,,,,,,,,,,,,,,,,,,,,,,,,,,,,,,,,,,,,,,,,,,,,,,,,,,,,,,,,,,,,,,,,,,,,,,,,,,,,,,,,
,,,,,,,,5e4d8eda83dc301d9395adfb,29,M,R,2020-09-10_09h45.35.270,Hybrid_Search_Task,2020.2.3,Win32,60,,,,,,,,,,,,,,,,,,,,,,,,,,,,,,,,,,,,,,,,,,,,,,,,,,,,,m,,,,,,,0,0,9,9,7,1,Practice/PracSearch/2_1.jpg,,,,,,,,,,,,,,,,,,,,,,,,,,,,,,,,,,,,,,,,,,,,,,,,,,,,,,,,,,,,,,,,,,,,,,,,,,,,,,,,,,,,,,,,,,,,,,,,,
,,,,,,,,5e4d8eda83dc301d9395adfb,29,M,R,2020-09-10_09h45.35.270,Hybrid_Search_Task,2020.2.3,Win32,60,,,,,,,,,,,,,,,,,,,,,,,,,,,,,,,,,,,,,,,,,,,,,,,,,,,,,m,,,,,,,0,0,10,10,4,1,Practice/PracSearch/1_1.jpg,,,,,,,,,,,,,,,,,,,,,,,,,,,,,,,,,,,,,,,,,,,,,,,,,,,,,,,,,,,,,,,,,,,,,,,,,,,,,,,,,,,,,,,,,,,,,,,,,
,,,,,,,,5e4d8eda83dc301d9395adfb,29,M,R,2020-09-10_09h45.35.270,Hybrid_Search_Task,2020.2.3,Win32,60,,,,,,,,,,,,,,,,,,,,,,,,,,,,,,,,,,,,,,,,,,,,,,,,,,,,,z,,,,,,,0,0,11,11,0,1,Practice/PracTarg/01.jpg,,,,,,,,,,,,,,,,,,,,,,,,,,,,,,,,,,,,,,,,,,,,,,,,,,,,,,,,,,,,,,,,,,,,,,,,,,,,,,,,,,,,,,,,,,,,,,,,,
,,,,,,,,5e4d8eda83dc301d9395adfb,29,M,R,2020-09-10_09h45.35.270,Hybrid_Search_Task,2020.2.3,Win32,60,,,,,,,,,,,,,,,,,,,,,,,,,,,,,,,,,,,,,,,,,,,,,,,,,,,,,m,,,,,,,0,0,12,12,10,1,Practice/PracSearch/3_1.jpg,,,,,,,,,,,,,,,,,,,,,,,,,,,,,,,,,,,,,,,,,,,,,,,,,,,,,,,,,,,,,,,,,,,,,,,,,,,,,,,,,,,,,,,,,,,,,,,,,
,,,,,,,,5e4d8eda83dc301d9395adfb,29,M,R,2020-09-10_09h45.35.270,Hybrid_Search_Task,2020.2.3,Win32,60,,,,,,,,,,,,,,,,,,,,,,,,,,,,,,,,,,,,,,,,,,,,,,,,,,,,,z,,,,,,,0,0,13,13,2,1,Practice/PracTarg/01.jpg,,,,,,,,,,,,,,,,,,,,,,,,,,,,,,,,,,,,,,,,,,,,,,,,,,,,,,,,,,,,,,,,,,,,,,,,,,,,,,,,,,,,,,,,,,,,,,,,,
,,,,,,,,5e4d8eda83dc301d9395adfb,29,M,R,2020-09-10_09h45.35.270,Hybrid_Search_Task,2020.2.3,Win32,60,,,,,,,,,,,,,,,,,,,,,,,,,,,,,,,,,,,,,,,,,,,,,,,,,,,,,m,,,,,,,0,0,14,14,6,1,Practice/PracSearch/1_3.jpg,,,,,,,,,,,,,,,,,,,,,,,,,,,,,,,,,,,,,,,,,,,,,,,,,,,,,,,,,,,,,,,,,,,,,,,,,,,,,,,,,,,,,,,,,,,,,,,,,
,,,,,,,,5e4d8eda83dc301d9395adfb,29,M,R,2020-09-10_09h45.35.270,Hybrid_Search_Task,2020.2.3,Win32,60,,,,,,,,,,,,,,,,,,,,,,,,,,,,,,,,,,,,,,,,,,,,,,,,,,,,,m,,,,,,,0,0,15,15,15,1,Practice/PracSearch/10_3.jpg,,,,,,,,,,,,,,,,,,,,,,,,,,,,,,,,,,,,,,,,,,,,,,,,,,,,,,,,,,,,,,,,,,,,,,,,,,,,,,,,,,,,,,,,,,,,,,,,,
,,,,,,,,5e4d8eda83dc301d9395adfb,29,M,R,2020-09-10_09h45.35.270,Hybrid_Search_Task,2020.2.3,Win32,60,,,,,,,,,,,,,,,,,,,,,,,,,,,,,,,,,,,,,,,,,,,,,,,,,,,,,z,,,,,,,0,0,16,16,1,1,Practice/PracTarg/02.jpg,,,,,,,,,,,,,,,,,,,,,,,,,,,,,,,,,,,,,,,,,,,,,,,,,,,,,,,,,,,,,,,,,,,,,,,,,,,,,,,,,,,,,,,,,,,,,,,,,
,,,,,,,,5e4d8eda83dc301d9395adfb,29,M,R,2020-09-10_09h45.35.270,Hybrid_Search_Task,2020.2.3,Win32,60,,,,,,,,,,,,,,,,,,,,,,,,,,,,,,,,,,,,,,,,,,,,,,,,,,,,,m,,,,,,,0,0,17,17,13,1,Practice/PracSearch/10_1.jpg,,,,,,,,,,,,,,,,,,,,,,,,,,,,,,,,,,,,,,,,,,,,,,,,,,,,,,,,,,,,,,,,,,,,,,,,,,,,,,,,,,,,,,,,,,,,,,,,,
,,,,,,,,5e4d8eda83dc301d9395adfb,29,M,R,2020-09-10_09h45.35.270,Hybrid_Search_Task,2020.2.3,Win32,60,,,,,,,,,,,,,,,,,,,,,,,,,,,,,,,,,,,,,,,,,,,,,,,,,,,,,m,,,,,,,0,0,18,18,9,1,Practice/PracSearch/2_3.jpg,,,,,,,,,,,,,,,,,,,,,,,,,,,,,,,,,,,,,,,,,,,,,,,,,,,,,,,,,,,,,,,,,,,,,,,,,,,,,,,,,,,,,,,,,,,,,,,,,
,,,,,,,,5e4d8eda83dc301d9395adfb,29,M,R,2020-09-10_09h45.35.270,Hybrid_Search_Task,2020.2.3,Win32,60,,,,,,,,,,,,,,,,,,,,,,,,,,,,,,,,,,,,,,,,,,,,,,,,,,,,,m,,,,,,,0,0,19,19,19,1,Practice/PracSearch/12_2.jpg,,,,,,,,,,,,,,,,,,,,,,,,,,,,,,,,,,,,,,,,,,,,,,,,,,,,,,,,,,,,,,,,,,,,,,,,,,,,,,,,,,,,,,,,,,,,,,,,,
,,,,,,,,5e4d8eda83dc301d9395adfb,29,M,R,2020-09-10_09h45.35.270,Hybrid_Search_Task,2020.2.3,Win32,60,,,,,,,,,,,,,,,,,,,,,,,,,,,,,,,,,,,,,,,,,,,,,,,,,,,,,,,,,,,,,,,,,,,0,0,0,0,1,Practice/pStudy2.xlsx,Practice/pTest2_1.xlsx,Practice/pTest2_2.xlsx,Practice/pTest2_3.xlsx,Practice/pSearch2.xlsx,,,,,,,,,,,,,,,,,,,,,,,,,,,,,,,,,,,,,,,,,,,,,,,,,,,,,,,,,,,,,,,,,,,,,,,,,,,,,,,,,,,,,,,
,,,,,,,,5e4d8eda83dc301d9395adfb,29,M,R,2020-09-10_09h45.35.270,Hybrid_Search_Task,2020.2.3,Win32,60,,,,,,,,,,,,,,,,,,,,,,,,,,,,,,,,,,,,,,,,,,,,,,,,,,,,,,,,,,,,,,,,,,,,,,,,,,,,,space,32.08539,0,0,0,12,1,Animals,seashell,Stimuli/Animals/seashell/seashell_13.jpg,,,,,,,,,,,,,,,,,,,,,,,,,,,,,,,,,,,,,,,,,,,,,,,,,,,,,,,,,,,,,,,,,,,,,,,,,,,,,
,,,,,,,,5e4d8eda83dc301d9395adfb,29,M,R,2020-09-10_09h45.35.270,Hybrid_Search_Task,2020.2.3,Win32,60,,,,,,,,,,,,,,,,,,,,,,,,,,,,,,,,,,,,,,,,,,,,,,,,,,,,,,,,,,,,,,,,,,,,,,,,,,,,,,,0,1,1,6,1,Animals,seashell,Stimuli/Animals/seashell/seashell_07.jpg,,,,,,,,,,,,,,,,,,,,,,,,,,,,,,,,,,,,,,,,,,,,,,,,,,,,,,,,,,,,,,,,,,,,,,,,,,,,,
,,,,,,,,5e4d8eda83dc301d9395adfb,29,M,R,2020-09-10_09h45.35.270,Hybrid_Search_Task,2020.2.3,Win32,60,,,,,,,,,,,,,,,,,,,,,,,,,,,,,,,,,,,,,,,,,,,,,,,,,,,,,,,,,,,,,,,,,,,,,,,,,,,,,,,0,2,2,2,1,Animals,seashell,Stimuli/Animals/seashell/seashell_03.jpg,,,,,,,,,,,,,,,,,,,,,,,,,,,,,,,,,,,,,,,,,,,,,,,,,,,,,,,,,,,,,,,,,,,,,,,,,,,,,
,,,,,,,,5e4d8eda83dc301d9395adfb,29,M,R,2020-09-10_09h45.35.270,Hybrid_Search_Task,2020.2.3,Win32,60,,,,,,,,,,,,,,,,,,,,,,,,,,,,,,,,,,,,,,,,,,,,,,,,,,,,,,,,,,,,,,,,,,,,,,,,,,,,,,,0,3,3,7,1,Animals,seashell,Stimuli/Animals/seashell/seashell_08.jpg,,,,,,,,,,,,,,,,,,,,,,,,,,,,,,,,,,,,,,,,,,,,,,,,,,,,,,,,,,,,,,,,,,,,,,,,,,,,,
,,,,,,,,5e4d8eda83dc301d9395adfb,29,M,R,2020-09-10_09h45.35.270,Hybrid_Search_Task,2020.2.3,Win32,60,,,,,,,,,,,,,,,,,,,,,,,,,,,,,,,,,,,,,,,,,,,,,,,,,,,,,,,,,,,,,,,,,,,,,,,,,,,,,,,0,4,4,8,1,Animals,seashell,Stimuli/Animals/seashell/seashell_09.jpg,,,,,,,,,,,,,,,,,,,,,,,,,,,,,,,,,,,,,,,,,,,,,,,,,,,,,,,,,,,,,,,,,,,,,,,,,,,,,
,,,,,,,,5e4d8eda83dc301d9395adfb,29,M,R,2020-09-10_09h45.35.270,Hybrid_Search_Task,2020.2.3,Win32,60,,,,,,,,,,,,,,,,,,,,,,,,,,,,,,,,,,,,,,,,,,,,,,,,,,,,,,,,,,,,,,,,,,,,,,,,,,,,,,,0,5,5,16,1,Animals,seashell,Stimuli/Animals/seashell/seashell_17.jpg,,,,,,,,,,,,,,,,,,,,,,,,,,,,,,,,,,,,,,,,,,,,,,,,,,,,,,,,,,,,,,,,,,,,,,,,,,,,,
,,,,,,,,5e4d8eda83dc301d9395adfb,29,M,R,2020-09-10_09h45.35.270,Hybrid_Search_Task,2020.2.3,Win32,60,,,,,,,,,,,,,,,,,,,,,,,,,,,,,,,,,,,,,,,,,,,,,,,,,,,,,,,,,,,,,,,,,,,,,,,,,,,,,,,0,6,6,4,1,Animals,seashell,Stimuli/Animals/seashell/seashell_05.jpg,,,,,,,,,,,,,,,,,,,,,,,,,,,,,,,,,,,,,,,,,,,,,,,,,,,,,,,,,,,,,,,,,,,,,,,,,,,,,
,,,,,,,,5e4d8eda83dc301d9395adfb,29,M,R,2020-09-10_09h45.35.270,Hybrid_Search_Task,2020.2.3,Win32,60,,,,,,,,,,,,,,,,,,,,,,,,,,,,,,,,,,,,,,,,,,,,,,,,,,,,,,,,,,,,,,,,,,,,,,,,,,,,,,,0,7,7,1,1,Animals,seashell,Stimuli/Animals/seashell/seashell_02.jpg,,,,,,,,,,,,,,,,,,,,,,,,,,,,,,,,,,,,,,,,,,,,,,,,,,,,,,,,,,,,,,,,,,,,,,,,,,,,,
,,,,,,,,5e4d8eda83dc301d9395adfb,29,M,R,2020-09-10_09h45.35.270,Hybrid_Search_Task,2020.2.3,Win32,60,,,,,,,,,,,,,,,,,,,,,,,,,,,,,,,,,,,,,,,,,,,,,,,,,,,,,,,,,,,,,,,,,,,,,,,,,,,,,,,0,8,8,10,1,Animals,seashell,Stimuli/Animals/seashell/seashell_11.jpg,,,,,,,,,,,,,,,,,,,,,,,,,,,,,,,,,,,,,,,,,,,,,,,,,,,,,,,,,,,,,,,,,,,,,,,,,,,,,
,,,,,,,,5e4d8eda83dc301d9395adfb,29,M,R,2020-09-10_09h45.35.270,Hybrid_Search_Task,2020.2.3,Win32,60,,,,,,,,,,,,,,,,,,,,,,,,,,,,,,,,,,,,,,,,,,,,,,,,,,,,,,,,,,,,,,,,,,,,,,,,,,,,,,,0,9,9,5,1,Animals,seashell,Stimuli/Animals/seashell/seashell_06.jpg,,,,,,,,,,,,,,,,,,,,,,,,,,,,,,,,,,,,,,,,,,,,,,,,,,,,,,,,,,,,,,,,,,,,,,,,,,,,,
,,,,,,,,5e4d8eda83dc301d9395adfb,29,M,R,2020-09-10_09h45.35.270,Hybrid_Search_Task,2020.2.3,Win32,60,,,,,,,,,,,,,,,,,,,,,,,,,,,,,,,,,,,,,,,,,,,,,,,,,,,,,,,,,,,,,,,,,,,,,,,,,,,,,,,0,10,10,3,1,Animals,seashell,Stimuli/Animals/seashell/seashell_04.jpg,,,,,,,,,,,,,,,,,,,,,,,,,,,,,,,,,,,,,,,,,,,,,,,,,,,,,,,,,,,,,,,,,,,,,,,,,,,,,
,,,,,,,,5e4d8eda83dc301d9395adfb,29,M,R,2020-09-10_09h45.35.270,Hybrid_Search_Task,2020.2.3,Win32,60,,,,,,,,,,,,,,,,,,,,,,,,,,,,,,,,,,,,,,,,,,,,,,,,,,,,,,,,,,,,,,,,,,,,,,,,,,,,,,,0,11,11,9,1,Animals,seashell,Stimuli/Animals/seashell/seashell_10.jpg,,,,,,,,,,,,,,,,,,,,,,,,,,,,,,,,,,,,,,,,,,,,,,,,,,,,,,,,,,,,,,,,,,,,,,,,,,,,,
,,,,,,,,5e4d8eda83dc301d9395adfb,29,M,R,2020-09-10_09h45.35.270,Hybrid_Search_Task,2020.2.3,Win32,60,,,,,,,,,,,,,,,,,,,,,,,,,,,,,,,,,,,,,,,,,,,,,,,,,,,,,,,,,,,,,,,,,,,,,,,,,,,,,,,0,12,12,11,1,Animals,seashell,Stimuli/Animals/seashell/seashell_12.jpg,,,,,,,,,,,,,,,,,,,,,,,,,,,,,,,,,,,,,,,,,,,,,,,,,,,,,,,,,,,,,,,,,,,,,,,,,,,,,
,,,,,,,,5e4d8eda83dc301d9395adfb,29,M,R,2020-09-10_09h45.35.270,Hybrid_Search_Task,2020.2.3,Win32,60,,,,,,,,,,,,,,,,,,,,,,,,,,,,,,,,,,,,,,,,,,,,,,,,,,,,,,,,,,,,,,,,,,,,,,,,,,,,,,,0,13,13,14,1,Animals,seashell,Stimuli/Animals/seashell/seashell_15.jpg,,,,,,,,,,,,,,,,,,,,,,,,,,,,,,,,,,,,,,,,,,,,,,,,,,,,,,,,,,,,,,,,,,,,,,,,,,,,,
,,,,,,,,5e4d8eda83dc301d9395adfb,29,M,R,2020-09-10_09h45.35.270,Hybrid_Search_Task,2020.2.3,Win32,60,,,,,,,,,,,,,,,,,,,,,,,,,,,,,,,,,,,,,,,,,,,,,,,,,,,,,,,,,,,,,,,,,,,,,,,,,,,,,,,0,14,14,13,1,Animals,seashell,Stimuli/Animals/seashell/seashell_14.jpg,,,,,,,,,,,,,,,,,,,,,,,,,,,,,,,,,,,,,,,,,,,,,,,,,,,,,,,,,,,,,,,,,,,,,,,,,,,,,
,,,,,,,,5e4d8eda83dc301d9395adfb,29,M,R,2020-09-10_09h45.35.270,Hybrid_Search_Task,2020.2.3,Win32,60,,,,,,,,,,,,,,,,,,,,,,,,,,,,,,,,,,,,,,,,,,,,,,,,,,,,,,,,,,,,,,,,,,,,,,,,,,,,,,,0,15,15,15,1,Animals,seashell,Stimuli/Animals/seashell/seashell_16.jpg,,,,,,,,,,,,,,,,,,,,,,,,,,,,,,,,,,,,,,,,,,,,,,,,,,,,,,,,,,,,,,,,,,,,,,,,,,,,,
,,,,,,,,5e4d8eda83dc301d9395adfb,29,M,R,2020-09-10_09h45.35.270,Hybrid_Search_Task,2020.2.3,Win32,60,,,,,,,,,,,,,,,,,,,,,,,,,,,,,,,,,,,,,,,,,,,,,,,,,,,,,,,,,,,,,,,,,,,,,,,,,,,,,,,0,16,16,0,1,Animals,seashell,Stimuli/Animals/seashell/seashell_01.jpg,,,,,,,,,,,,,,,,,,,,,,,,,,,,,,,,,,,,,,,,,,,,,,,,,,,,,,,,,,,,,,,,,,,,,,,,,,,,,
,,,,,,,,5e4d8eda83dc301d9395adfb,29,M,R,2020-09-10_09h45.35.270,Hybrid_Search_Task,2020.2.3,Win32,60,,,,,,,,,,,,,,,,,,,,,,,,,,,,,,,,,,,,,,,,,,,,,,,,,,,,,,,,,,,,,,,,,,,,,,,,,,,,,,,,,,,,,,,0,0,0,24,1,StimList/seashell.xls,,,,,,,,,,,,,,,,,,,,,,,,,,,,,,,,,,,,,,,,,,,,,,,,,,,,,,,,,,,,,,,,,,,,,,,
,,,,,,,,5e4d8eda83dc301d9395adfb,29,M,R,2020-09-10_09h45.35.270,Hybrid_Search_Task,2020.2.3,Win32,60,,,,,,,,,,,,,,,,,,,,,,,,,,,,,,,,,,,,,,,,,,,,,,,,,,,,,,,,,,,,,,,,,,,,,,,,,,,,,,,0,0,0,2,1,Animals,butterfly,Stimuli/Animals/butterfly/buttenfly_03.jpg,,,,,,,,,,,,,,,,,,,,,,,,,,,,,,,,,,,,,,,,,,,,,,,,,,,,,,,,,,,,,,,,,,,,,,,,,,,,,
,,,,,,,,5e4d8eda83dc301d9395adfb,29,M,R,2020-09-10_09h45.35.270,Hybrid_Search_Task,2020.2.3,Win32,60,,,,,,,,,,,,,,,,,,,,,,,,,,,,,,,,,,,,,,,,,,,,,,,,,,,,,,,,,,,,,,,,,,,,,,,,,,,,,,,0,1,1,10,1,Animals,butterfly,Stimuli/Animals/butterfly/buttenfly_11.jpg,,,,,,,,,,,,,,,,,,,,,,,,,,,,,,,,,,,,,,,,,,,,,,,,,,,,,,,,,,,,,,,,,,,,,,,,,,,,,
,,,,,,,,5e4d8eda83dc301d9395adfb,29,M,R,2020-09-10_09h45.35.270,Hybrid_Search_Task,2020.2.3,Win32,60,,,,,,,,,,,,,,,,,,,,,,,,,,,,,,,,,,,,,,,,,,,,,,,,,,,,,,,,,,,,,,,,,,,,,,,,,,,,,,,0,2,2,15,1,Animals,butterfly,Stimuli/Animals/butterfly/buttenfly_16.jpg,,,,,,,,,,,,,,,,,,,,,,,,,,,,,,,,,,,,,,,,,,,,,,,,,,,,,,,,,,,,,,,,,,,,,,,,,,,,,
,,,,,,,,5e4d8eda83dc301d9395adfb,29,M,R,2020-09-10_09h45.35.270,Hybrid_Search_Task,2020.2.3,Win32,60,,,,,,,,,,,,,,,,,,,,,,,,,,,,,,,,,,,,,,,,,,,,,,,,,,,,,,,,,,,,,,,,,,,,,,,,,,,,,,,0,3,3,6,1,Animals,butterfly,Stimuli/Animals/butterfly/buttenfly_07.jpg,,,,,,,,,,,,,,,,,,,,,,,,,,,,,,,,,,,,,,,,,,,,,,,,,,,,,,,,,,,,,,,,,,,,,,,,,,,,,
,,,,,,,,5e4d8eda83dc301d9395adfb,29,M,R,2020-09-10_09h45.35.270,Hybrid_Search_Task,2020.2.3,Win32,60,,,,,,,,,,,,,,,,,,,,,,,,,,,,,,,,,,,,,,,,,,,,,,,,,,,,,,,,,,,,,,,,,,,,,,,,,,,,,,,0,4,4,5,1,Animals,butterfly,Stimuli/Animals/butterfly/buttenfly_06.jpg,,,,,,,,,,,,,,,,,,,,,,,,,,,,,,,,,,,,,,,,,,,,,,,,,,,,,,,,,,,,,,,,,,,,,,,,,,,,,
,,,,,,,,5e4d8eda83dc301d9395adfb,29,M,R,2020-09-10_09h45.35.270,Hybrid_Search_Task,2020.2.3,Win32,60,,,,,,,,,,,,,,,,,,,,,,,,,,,,,,,,,,,,,,,,,,,,,,,,,,,,,,,,,,,,,,,,,,,,,,,,,,,,,,,0,5,5,8,1,Animals,butterfly,Stimuli/Animals/butterfly/buttenfly_09.jpg,,,,,,,,,,,,,,,,,,,,,,,,,,,,,,,,,,,,,,,,,,,,,,,,,,,,,,,,,,,,,,,,,,,,,,,,,,,,,
,,,,,,,,5e4d8eda83dc301d9395adfb,29,M,R,2020-09-10_09h45.35.270,Hybrid_Search_Task,2020.2.3,Win32,60,,,,,,,,,,,,,,,,,,,,,,,,,,,,,,,,,,,,,,,,,,,,,,,,,,,,,,,,,,,,,,,,,,,,,,,,,,,,,,,0,6,6,13,1,Animals,butterfly,Stimuli/Animals/butterfly/buttenfly_14.jpg,,,,,,,,,,,,,,,,,,,,,,,,,,,,,,,,,,,,,,,,,,,,,,,,,,,,,,,,,,,,,,,,,,,,,,,,,,,,,
,,,,,,,,5e4d8eda83dc301d9395adfb,29,M,R,2020-09-10_09h45.35.270,Hybrid_Search_Task,2020.2.3,Win32,60,,,,,,,,,,,,,,,,,,,,,,,,,,,,,,,,,,,,,,,,,,,,,,,,,,,,,,,,,,,,,,,,,,,,,,,,,,,,,,,0,7,7,12,1,Animals,butterfly,Stimuli/Animals/butterfly/buttenfly_13.jpg,,,,,,,,,,,,,,,,,,,,,,,,,,,,,,,,,,,,,,,,,,,,,,,,,,,,,,,,,,,,,,,,,,,,,,,,,,,,,
,,,,,,,,5e4d8eda83dc301d9395adfb,29,M,R,2020-09-10_09h45.35.270,Hybrid_Search_Task,2020.2.3,Win32,60,,,,,,,,,,,,,,,,,,,,,,,,,,,,,,,,,,,,,,,,,,,,,,,,,,,,,,,,,,,,,,,,,,,,,,,,,,,,,,,0,8,8,11,1,Animals,butterfly,Stimuli/Animals/butterfly/buttenfly_12.jpg,,,,,,,,,,,,,,,,,,,,,,,,,,,,,,,,,,,,,,,,,,,,,,,,,,,,,,,,,,,,,,,,,,,,,,,,,,,,,
,,,,,,,,5e4d8eda83dc301d9395adfb,29,M,R,2020-09-10_09h45.35.270,Hybrid_Search_Task,2020.2.3,Win32,60,,,,,,,,,,,,,,,,,,,,,,,,,,,,,,,,,,,,,,,,,,,,,,,,,,,,,,,,,,,,,,,,,,,,,,,,,,,,,,,0,9,9,14,1,Animals,butterfly,Stimuli/Animals/butterfly/buttenfly_15.jpg,,,,,,,,,,,,,,,,,,,,,,,,,,,,,,,,,,,,,,,,,,,,,,,,,,,,,,,,,,,,,,,,,,,,,,,,,,,,,
,,,,,,,,5e4d8eda83dc301d9395adfb,29,M,R,2020-09-10_09h45.35.270,Hybrid_Search_Task,2020.2.3,Win32,60,,,,,,,,,,,,,,,,,,,,,,,,,,,,,,,,,,,,,,,,,,,,,,,,,,,,,,,,,,,,,,,,,,,,,,,,,,,,,,,0,10,10,16,1,Animals,butterfly,Stimuli/Animals/butterfly/buttenfly_17.jpg,,,,,,,,,,,,,,,,,,,,,,,,,,,,,,,,,,,,,,,,,,,,,,,,,,,,,,,,,,,,,,,,,,,,,,,,,,,,,
,,,,,,,,5e4d8eda83dc301d9395adfb,29,M,R,2020-09-10_09h45.35.270,Hybrid_Search_Task,2020.2.3,Win32,60,,,,,,,,,,,,,,,,,,,,,,,,,,,,,,,,,,,,,,,,,,,,,,,,,,,,,,,,,,,,,,,,,,,,,,,,,,,,,,,0,11,11,3,1,Animals,butterfly,Stimuli/Animals/butterfly/buttenfly_04.jpg,,,,,,,,,,,,,,,,,,,,,,,,,,,,,,,,,,,,,,,,,,,,,,,,,,,,,,,,,,,,,,,,,,,,,,,,,,,,,
,,,,,,,,5e4d8eda83dc301d9395adfb,29,M,R,2020-09-10_09h45.35.270,Hybrid_Search_Task,2020.2.3,Win32,60,,,,,,,,,,,,,,,,,,,,,,,,,,,,,,,,,,,,,,,,,,,,,,,,,,,,,,,,,,,,,,,,,,,,,,,,,,,,,,,0,12,12,1,1,Animals,butterfly,Stimuli/Animals/butterfly/buttenfly_02.jpg,,,,,,,,,,,,,,,,,,,,,,,,,,,,,,,,,,,,,,,,,,,,,,,,,,,,,,,,,,,,,,,,,,,,,,,,,,,,,
,,,,,,,,5e4d8eda83dc301d9395adfb,29,M,R,2020-09-10_09h45.35.270,Hybrid_Search_Task,2020.2.3,Win32,60,,,,,,,,,,,,,,,,,,,,,,,,,,,,,,,,,,,,,,,,,,,,,,,,,,,,,,,,,,,,,,,,,,,,,,,,,,,,,,,0,13,13,4,1,Animals,butterfly,Stimuli/Animals/butterfly/buttenfly_05.jpg,,,,,,,,,,,,,,,,,,,,,,,,,,,,,,,,,,,,,,,,,,,,,,,,,,,,,,,,,,,,,,,,,,,,,,,,,,,,,
,,,,,,,,5e4d8eda83dc301d9395adfb,29,M,R,2020-09-10_09h45.35.270,Hybrid_Search_Task,2020.2.3,Win32,60,,,,,,,,,,,,,,,,,,,,,,,,,,,,,,,,,,,,,,,,,,,,,,,,,,,,,,,,,,,,,,,,,,,,,,,,,,,,,,,0,14,14,0,1,Animals,butterfly,Stimuli/Animals/butterfly/buttenfly_01.jpg,,,,,,,,,,,,,,,,,,,,,,,,,,,,,,,,,,,,,,,,,,,,,,,,,,,,,,,,,,,,,,,,,,,,,,,,,,,,,
,,,,,,,,5e4d8eda83dc301d9395adfb,29,M,R,2020-09-10_09h45.35.270,Hybrid_Search_Task,2020.2.3,Win32,60,,,,,,,,,,,,,,,,,,,,,,,,,,,,,,,,,,,,,,,,,,,,,,,,,,,,,,,,,,,,,,,,,,,,,,,,,,,,,,,0,15,15,9,1,Animals,butterfly,Stimuli/Animals/butterfly/buttenfly_10.jpg,,,,,,,,,,,,,,,,,,,,,,,,,,,,,,,,,,,,,,,,,,,,,,,,,,,,,,,,,,,,,,,,,,,,,,,,,,,,,
,,,,,,,,5e4d8eda83dc301d9395adfb,29,M,R,2020-09-10_09h45.35.270,Hybrid_Search_Task,2020.2.3,Win32,60,,,,,,,,,,,,,,,,,,,,,,,,,,,,,,,,,,,,,,,,,,,,,,,,,,,,,,,,,,,,,,,,,,,,,,,,,,,,,,,0,16,16,7,1,Animals,butterfly,Stimuli/Animals/butterfly/buttenfly_08.jpg,,,,,,,,,,,,,,,,,,,,,,,,,,,,,,,,,,,,,,,,,,,,,,,,,,,,,,,,,,,,,,,,,,,,,,,,,,,,,
,,,,,,,,5e4d8eda83dc301d9395adfb,29,M,R,2020-09-10_09h45.35.270,Hybrid_Search_Task,2020.2.3,Win32,60,,,,,,,,,,,,,,,,,,,,,,,,,,,,,,,,,,,,,,,,,,,,,,,,,,,,,,,,,,,,,,,,,,,,,,,,,,,,,,,,,,,,,,,0,1,1,2,1,StimList/butterfly.xls,,,,,,,,,,,,,,,,,,,,,,,,,,,,,,,,,,,,,,,,,,,,,,,,,,,,,,,,,,,,,,,,,,,,,,,
,,,,,,,,5e4d8eda83dc301d9395adfb,29,M,R,2020-09-10_09h45.35.270,Hybrid_Search_Task,2020.2.3,Win32,60,,,,,,,,,,,,,,,,,,,,,,,,,,,,,,,,,,,,,,,,,,,,,,,,,,,,,,,,,,,,,,,,,,,,,,,,,,,,,,,0,0,0,8,1,Animals,horse,Stimuli/Animals/horse/horse_09.jpg,,,,,,,,,,,,,,,,,,,,,,,,,,,,,,,,,,,,,,,,,,,,,,,,,,,,,,,,,,,,,,,,,,,,,,,,,,,,,
,,,,,,,,5e4d8eda83dc301d9395adfb,29,M,R,2020-09-10_09h45.35.270,Hybrid_Search_Task,2020.2.3,Win32,60,,,,,,,,,,,,,,,,,,,,,,,,,,,,,,,,,,,,,,,,,,,,,,,,,,,,,,,,,,,,,,,,,,,,,,,,,,,,,,,0,1,1,3,1,Animals,horse,Stimuli/Animals/horse/horse_04.jpg,,,,,,,,,,,,,,,,,,,,,,,,,,,,,,,,,,,,,,,,,,,,,,,,,,,,,,,,,,,,,,,,,,,,,,,,,,,,,
,,,,,,,,5e4d8eda83dc301d9395adfb,29,M,R,2020-09-10_09h45.35.270,Hybrid_Search_Task,2020.2.3,Win32,60,,,,,,,,,,,,,,,,,,,,,,,,,,,,,,,,,,,,,,,,,,,,,,,,,,,,,,,,,,,,,,,,,,,,,,,,,,,,,,,0,2,2,5,1,Animals,horse,Stimuli/Animals/horse/horse_06.jpg,,,,,,,,,,,,,,,,,,,,,,,,,,,,,,,,,,,,,,,,,,,,,,,,,,,,,,,,,,,,,,,,,,,,,,,,,,,,,
,,,,,,,,5e4d8eda83dc301d9395adfb,29,M,R,2020-09-10_09h45.35.270,Hybrid_Search_Task,2020.2.3,Win32,60,,,,,,,,,,,,,,,,,,,,,,,,,,,,,,,,,,,,,,,,,,,,,,,,,,,,,,,,,,,,,,,,,,,,,,,,,,,,,,,0,3,3,6,1,Animals,horse,Stimuli/Animals/horse/horse_07.jpg,,,,,,,,,,,,,,,,,,,,,,,,,,,,,,,,,,,,,,,,,,,,,,,,,,,,,,,,,,,,,,,,,,,,,,,,,,,,,
,,,,,,,,5e4d8eda83dc301d9395adfb,29,M,R,2020-09-10_09h45.35.270,Hybrid_Search_Task,2020.2.3,Win32,60,,,,,,,,,,,,,,,,,,,,,,,,,,,,,,,,,,,,,,,,,,,,,,,,,,,,,,,,,,,,,,,,,,,,,,,,,,,,,,,0,4,4,12,1,Animals,horse,Stimuli/Animals/horse/horse_13.jpg,,,,,,,,,,,,,,,,,,,,,,,,,,,,,,,,,,,,,,,,,,,,,,,,,,,,,,,,,,,,,,,,,,,,,,,,,,,,,
,,,,,,,,5e4d8eda83dc301d9395adfb,29,M,R,2020-09-10_09h45.35.270,Hybrid_Search_Task,2020.2.3,Win32,60,,,,,,,,,,,,,,,,,,,,,,,,,,,,,,,,,,,,,,,,,,,,,,,,,,,,,,,,,,,,,,,,,,,,,,,,,,,,,,,0,5,5,11,1,Animals,horse,Stimuli/Animals/horse/horse_12.jpg,,,,,,,,,,,,,,,,,,,,,,,,,,,,,,,,,,,,,,,,,,,,,,,,,,,,,,,,,,,,,,,,,,,,,,,,,,,,,
,,,,,,,,5e4d8eda83dc301d9395adfb,29,M,R,2020-09-10_09h45.35.270,Hybrid_Search_Task,2020.2.3,Win32,60,,,,,,,,,,,,,,,,,,,,,,,,,,,,,,,,,,,,,,,,,,,,,,,,,,,,,,,,,,,,,,,,,,,,,,,,,,,,,,,0,6,6,4,1,Animals,horse,Stimuli/Animals/horse/horse_05.jpg,,,,,,,,,,,,,,,,,,,,,,,,,,,,,,,,,,,,,,,,,,,,,,,,,,,,,,,,,,,,,,,,,,,,,,,,,,,,,
,,,,,,,,5e4d8eda83dc301d9395adfb,29,M,R,2020-09-10_09h45.35.270,Hybrid_Search_Task,2020.2.3,Win32,60,,,,,,,,,,,,,,,,,,,,,,,,,,,,,,,,,,,,,,,,,,,,,,,,,,,,,,,,,,,,,,,,,,,,,,,,,,,,,,,0,7,7,0,1,Animals,horse,Stimuli/Animals/horse/horse_01.jpg,,,,,,,,,,,,,,,,,,,,,,,,,,,,,,,,,,,,,,,,,,,,,,,,,,,,,,,,,,,,,,,,,,,,,,,,,,,,,
,,,,,,,,5e4d8eda83dc301d9395adfb,29,M,R,2020-09-10_09h45.35.270,Hybrid_Search_Task,2020.2.3,Win32,60,,,,,,,,,,,,,,,,,,,,,,,,,,,,,,,,,,,,,,,,,,,,,,,,,,,,,,,,,,,,,,,,,,,,,,,,,,,,,,,0,8,8,9,1,Animals,horse,Stimuli/Animals/horse/horse_10.jpg,,,,,,,,,,,,,,,,,,,,,,,,,,,,,,,,,,,,,,,,,,,,,,,,,,,,,,,,,,,,,,,,,,,,,,,,,,,,,
,,,,,,,,5e4d8eda83dc301d9395adfb,29,M,R,2020-09-10_09h45.35.270,Hybrid_Search_Task,2020.2.3,Win32,60,,,,,,,,,,,,,,,,,,,,,,,,,,,,,,,,,,,,,,,,,,,,,,,,,,,,,,,,,,,,,,,,,,,,,,,,,,,,,,,0,9,9,7,1,Animals,horse,Stimuli/Animals/horse/horse_08.jpg,,,,,,,,,,,,,,,,,,,,,,,,,,,,,,,,,,,,,,,,,,,,,,,,,,,,,,,,,,,,,,,,,,,,,,,,,,,,,
,,,,,,,,5e4d8eda83dc301d9395adfb,29,M,R,2020-09-10_09h45.35.270,Hybrid_Search_Task,2020.2.3,Win32,60,,,,,,,,,,,,,,,,,,,,,,,,,,,,,,,,,,,,,,,,,,,,,,,,,,,,,,,,,,,,,,,,,,,,,,,,,,,,,,,0,10,10,16,1,Animals,horse,Stimuli/Animals/horse/horse_17.jpg,,,,,,,,,,,,,,,,,,,,,,,,,,,,,,,,,,,,,,,,,,,,,,,,,,,,,,,,,,,,,,,,,,,,,,,,,,,,,
,,,,,,,,5e4d8eda83dc301d9395adfb,29,M,R,2020-09-10_09h45.35.270,Hybrid_Search_Task,2020.2.3,Win32,60,,,,,,,,,,,,,,,,,,,,,,,,,,,,,,,,,,,,,,,,,,,,,,,,,,,,,,,,,,,,,,,,,,,,,,,,,,,,,,,0,11,11,2,1,Animals,horse,Stimuli/Animals/horse/horse_03.jpg,,,,,,,,,,,,,,,,,,,,,,,,,,,,,,,,,,,,,,,,,,,,,,,,,,,,,,,,,,,,,,,,,,,,,,,,,,,,,
,,,,,,,,5e4d8eda83dc301d9395adfb,29,M,R,2020-09-10_09h45.35.270,Hybrid_Search_Task,2020.2.3,Win32,60,,,,,,,,,,,,,,,,,,,,,,,,,,,,,,,,,,,,,,,,,,,,,,,,,,,,,,,,,,,,,,,,,,,,,,,,,,,,,,,0,12,12,1,1,Animals,horse,Stimuli/Animals/horse/horse_02.jpg,,,,,,,,,,,,,,,,,,,,,,,,,,,,,,,,,,,,,,,,,,,,,,,,,,,,,,,,,,,,,,,,,,,,,,,,,,,,,
,,,,,,,,5e4d8eda83dc301d9395adfb,29,M,R,2020-09-10_09h45.35.270,Hybrid_Search_Task,2020.2.3,Win32,60,,,,,,,,,,,,,,,,,,,,,,,,,,,,,,,,,,,,,,,,,,,,,,,,,,,,,,,,,,,,,,,,,,,,,,,,,,,,,,,0,13,13,15,1,Animals,horse,Stimuli/Animals/horse/horse_16.jpg,,,,,,,,,,,,,,,,,,,,,,,,,,,,,,,,,,,,,,,,,,,,,,,,,,,,,,,,,,,,,,,,,,,,,,,,,,,,,
,,,,,,,,5e4d8eda83dc301d9395adfb,29,M,R,2020-09-10_09h45.35.270,Hybrid_Search_Task,2020.2.3,Win32,60,,,,,,,,,,,,,,,,,,,,,,,,,,,,,,,,,,,,,,,,,,,,,,,,,,,,,,,,,,,,,,,,,,,,,,,,,,,,,,,0,14,14,10,1,Animals,horse,Stimuli/Animals/horse/horse_11.jpg,,,,,,,,,,,,,,,,,,,,,,,,,,,,,,,,,,,,,,,,,,,,,,,,,,,,,,,,,,,,,,,,,,,,,,,,,,,,,
,,,,,,,,5e4d8eda83dc301d9395adfb,29,M,R,2020-09-10_09h45.35.270,Hybrid_Search_Task,2020.2.3,Win32,60,,,,,,,,,,,,,,,,,,,,,,,,,,,,,,,,,,,,,,,,,,,,,,,,,,,,,,,,,,,,,,,,,,,,,,,,,,,,,,,0,15,15,13,1,Animals,horse,Stimuli/Animals/horse/horse_14.jpg,,,,,,,,,,,,,,,,,,,,,,,,,,,,,,,,,,,,,,,,,,,,,,,,,,,,,,,,,,,,,,,,,,,,,,,,,,,,,
,,,,,,,,5e4d8eda83dc301d9395adfb,29,M,R,2020-09-10_09h45.35.270,Hybrid_Search_Task,2020.2.3,Win32,60,,,,,,,,,,,,,,,,,,,,,,,,,,,,,,,,,,,,,,,,,,,,,,,,,,,,,,,,,,,,,,,,,,,,,,,,,,,,,,,0,16,16,14,1,Animals,horse,Stimuli/Animals/horse/horse_15.jpg,,,,,,,,,,,,,,,,,,,,,,,,,,,,,,,,,,,,,,,,,,,,,,,,,,,,,,,,,,,,,,,,,,,,,,,,,,,,,
,,,,,,,,5e4d8eda83dc301d9395adfb,29,M,R,2020-09-10_09h45.35.270,Hybrid_Search_Task,2020.2.3,Win32,60,,,,,,,,,,,,,,,,,,,,,,,,,,,,,,,,,,,,,,,,,,,,,,,,,,,,,,,,,,,,,,,,,,,,,,,,,,,,,,,,,,,,,,,0,2,2,12,1,StimList/horse.xls,,,,,,,,,,,,,,,,,,,,,,,,,,,,,,,,,,,,,,,,,,,,,,,,,,,,,,,,,,,,,,,,,,,,,,,
,,,,,,,,5e4d8eda83dc301d9395adfb,29,M,R,2020-09-10_09h45.35.270,Hybrid_Search_Task,2020.2.3,Win32,60,,,,,,,,,,,,,,,,,,,,,,,,,,,,,,,,,,,,,,,,,,,,,,,,,,,,,,,,,,,,,,,,,,,,,,,,,,,,,,,0,0,0,16,1,Animals,insect,Stimuli/Animals/insect/insect_17.jpg,,,,,,,,,,,,,,,,,,,,,,,,,,,,,,,,,,,,,,,,,,,,,,,,,,,,,,,,,,,,,,,,,,,,,,,,,,,,,
,,,,,,,,5e4d8eda83dc301d9395adfb,29,M,R,2020-09-10_09h45.35.270,Hybrid_Search_Task,2020.2.3,Win32,60,,,,,,,,,,,,,,,,,,,,,,,,,,,,,,,,,,,,,,,,,,,,,,,,,,,,,,,,,,,,,,,,,,,,,,,,,,,,,,,0,1,1,13,1,Animals,insect,Stimuli/Animals/insect/insect_14.jpg,,,,,,,,,,,,,,,,,,,,,,,,,,,,,,,,,,,,,,,,,,,,,,,,,,,,,,,,,,,,,,,,,,,,,,,,,,,,,
,,,,,,,,5e4d8eda83dc301d9395adfb,29,M,R,2020-09-10_09h45.35.270,Hybrid_Search_Task,2020.2.3,Win32,60,,,,,,,,,,,,,,,,,,,,,,,,,,,,,,,,,,,,,,,,,,,,,,,,,,,,,,,,,,,,,,,,,,,,,,,,,,,,,,,0,2,2,3,1,Animals,insect,Stimuli/Animals/insect/insect_04.jpg,,,,,,,,,,,,,,,,,,,,,,,,,,,,,,,,,,,,,,,,,,,,,,,,,,,,,,,,,,,,,,,,,,,,,,,,,,,,,
,,,,,,,,5e4d8eda83dc301d9395adfb,29,M,R,2020-09-10_09h45.35.270,Hybrid_Search_Task,2020.2.3,Win32,60,,,,,,,,,,,,,,,,,,,,,,,,,,,,,,,,,,,,,,,,,,,,,,,,,,,,,,,,,,,,,,,,,,,,,,,,,,,,,,,0,3,3,10,1,Animals,insect,Stimuli/Animals/insect/insect_11.jpg,,,,,,,,,,,,,,,,,,,,,,,,,,,,,,,,,,,,,,,,,,,,,,,,,,,,,,,,,,,,,,,,,,,,,,,,,,,,,
,,,,,,,,5e4d8eda83dc301d9395adfb,29,M,R,2020-09-10_09h45.35.270,Hybrid_Search_Task,2020.2.3,Win32,60,,,,,,,,,,,,,,,,,,,,,,,,,,,,,,,,,,,,,,,,,,,,,,,,,,,,,,,,,,,,,,,,,,,,,,,,,,,,,,,0,4,4,11,1,Animals,insect,Stimuli/Animals/insect/insect_12.jpg,,,,,,,,,,,,,,,,,,,,,,,,,,,,,,,,,,,,,,,,,,,,,,,,,,,,,,,,,,,,,,,,,,,,,,,,,,,,,
,,,,,,,,5e4d8eda83dc301d9395adfb,29,M,R,2020-09-10_09h45.35.270,Hybrid_Search_Task,2020.2.3,Win32,60,,,,,,,,,,,,,,,,,,,,,,,,,,,,,,,,,,,,,,,,,,,,,,,,,,,,,,,,,,,,,,,,,,,,,,,,,,,,,,,0,5,5,8,1,Animals,insect,Stimuli/Animals/insect/insect_09.jpg,,,,,,,,,,,,,,,,,,,,,,,,,,,,,,,,,,,,,,,,,,,,,,,,,,,,,,,,,,,,,,,,,,,,,,,,,,,,,
,,,,,,,,5e4d8eda83dc301d9395adfb,29,M,R,2020-09-10_09h45.35.270,Hybrid_Search_Task,2020.2.3,Win32,60,,,,,,,,,,,,,,,,,,,,,,,,,,,,,,,,,,,,,,,,,,,,,,,,,,,,,,,,,,,,,,,,,,,,,,,,,,,,,,,0,6,6,7,1,Animals,insect,Stimuli/Animals/insect/insect_08.jpg,,,,,,,,,,,,,,,,,,,,,,,,,,,,,,,,,,,,,,,,,,,,,,,,,,,,,,,,,,,,,,,,,,,,,,,,,,,,,
,,,,,,,,5e4d8eda83dc301d9395adfb,29,M,R,2020-09-10_09h45.35.270,Hybrid_Search_Task,2020.2.3,Win32,60,,,,,,,,,,,,,,,,,,,,,,,,,,,,,,,,,,,,,,,,,,,,,,,,,,,,,,,,,,,,,,,,,,,,,,,,,,,,,,,0,7,7,15,1,Animals,insect,Stimuli/Animals/insect/insect_16.jpg,,,,,,,,,,,,,,,,,,,,,,,,,,,,,,,,,,,,,,,,,,,,,,,,,,,,,,,,,,,,,,,,,,,,,,,,,,,,,
,,,,,,,,5e4d8eda83dc301d9395adfb,29,M,R,2020-09-10_09h45.35.270,Hybrid_Search_Task,2020.2.3,Win32,60,,,,,,,,,,,,,,,,,,,,,,,,,,,,,,,,,,,,,,,,,,,,,,,,,,,,,,,,,,,,,,,,,,,,,,,,,,,,,,,0,8,8,1,1,Animals,insect,Stimuli/Animals/insect/insect_02.jpg,,,,,,,,,,,,,,,,,,,,,,,,,,,,,,,,,,,,,,,,,,,,,,,,,,,,,,,,,,,,,,,,,,,,,,,,,,,,,
,,,,,,,,5e4d8eda83dc301d9395adfb,29,M,R,2020-09-10_09h45.35.270,Hybrid_Search_Task,2020.2.3,Win32,60,,,,,,,,,,,,,,,,,,,,,,,,,,,,,,,,,,,,,,,,,,,,,,,,,,,,,,,,,,,,,,,,,,,,,,,,,,,,,,,0,9,9,5,1,Animals,insect,Stimuli/Animals/insect/insect_06.jpg,,,,,,,,,,,,,,,,,,,,,,,,,,,,,,,,,,,,,,,,,,,,,,,,,,,,,,,,,,,,,,,,,,,,,,,,,,,,,
,,,,,,,,5e4d8eda83dc301d9395adfb,29,M,R,2020-09-10_09h45.35.270,Hybrid_Search_Task,2020.2.3,Win32,60,,,,,,,,,,,,,,,,,,,,,,,,,,,,,,,,,,,,,,,,,,,,,,,,,,,,,,,,,,,,,,,,,,,,,,,,,,,,,,,0,10,10,12,1,Animals,insect,Stimuli/Animals/insect/insect_13.jpg,,,,,,,,,,,,,,,,,,,,,,,,,,,,,,,,,,,,,,,,,,,,,,,,,,,,,,,,,,,,,,,,,,,,,,,,,,,,,
,,,,,,,,5e4d8eda83dc301d9395adfb,29,M,R,2020-09-10_09h45.35.270,Hybrid_Search_Task,2020.2.3,Win32,60,,,,,,,,,,,,,,,,,,,,,,,,,,,,,,,,,,,,,,,,,,,,,,,,,,,,,,,,,,,,,,,,,,,,,,,,,,,,,,,0,11,11,14,1,Animals,insect,Stimuli/Animals/insect/insect_15.jpg,,,,,,,,,,,,,,,,,,,,,,,,,,,,,,,,,,,,,,,,,,,,,,,,,,,,,,,,,,,,,,,,,,,,,,,,,,,,,
,,,,,,,,5e4d8eda83dc301d9395adfb,29,M,R,2020-09-10_09h45.35.270,Hybrid_Search_Task,2020.2.3,Win32,60,,,,,,,,,,,,,,,,,,,,,,,,,,,,,,,,,,,,,,,,,,,,,,,,,,,,,,,,,,,,,,,,,,,,,,,,,,,,,,,0,12,12,4,1,Animals,insect,Stimuli/Animals/insect/insect_05.jpg,,,,,,,,,,,,,,,,,,,,,,,,,,,,,,,,,,,,,,,,,,,,,,,,,,,,,,,,,,,,,,,,,,,,,,,,,,,,,
,,,,,,,,5e4d8eda83dc301d9395adfb,29,M,R,2020-09-10_09h45.35.270,Hybrid_Search_Task,2020.2.3,Win32,60,,,,,,,,,,,,,,,,,,,,,,,,,,,,,,,,,,,,,,,,,,,,,,,,,,,,,,,,,,,,,,,,,,,,,,,,,,,,,,,0,13,13,0,1,Animals,insect,Stimuli/Animals/insect/insect_01.jpg,,,,,,,,,,,,,,,,,,,,,,,,,,,,,,,,,,,,,,,,,,,,,,,,,,,,,,,,,,,,,,,,,,,,,,,,,,,,,
,,,,,,,,5e4d8eda83dc301d9395adfb,29,M,R,2020-09-10_09h45.35.270,Hybrid_Search_Task,2020.2.3,Win32,60,,,,,,,,,,,,,,,,,,,,,,,,,,,,,,,,,,,,,,,,,,,,,,,,,,,,,,,,,,,,,,,,,,,,,,,,,,,,,,,0,14,14,6,1,Animals,insect,Stimuli/Animals/insect/insect_07.jpg,,,,,,,,,,,,,,,,,,,,,,,,,,,,,,,,,,,,,,,,,,,,,,,,,,,,,,,,,,,,,,,,,,,,,,,,,,,,,
,,,,,,,,5e4d8eda83dc301d9395adfb,29,M,R,2020-09-10_09h45.35.270,Hybrid_Search_Task,2020.2.3,Win32,60,,,,,,,,,,,,,,,,,,,,,,,,,,,,,,,,,,,,,,,,,,,,,,,,,,,,,,,,,,,,,,,,,,,,,,,,,,,,,,,0,15,15,2,1,Animals,insect,Stimuli/Animals/insect/insect_03.jpg,,,,,,,,,,,,,,,,,,,,,,,,,,,,,,,,,,,,,,,,,,,,,,,,,,,,,,,,,,,,,,,,,,,,,,,,,,,,,
,,,,,,,,5e4d8eda83dc301d9395adfb,29,M,R,2020-09-10_09h45.35.270,Hybrid_Search_Task,2020.2.3,Win32,60,,,,,,,,,,,,,,,,,,,,,,,,,,,,,,,,,,,,,,,,,,,,,,,,,,,,,,,,,,,,,,,,,,,,,,,,,,,,,,,0,16,16,9,1,Animals,insect,Stimuli/Animals/insect/insect_10.jpg,,,,,,,,,,,,,,,,,,,,,,,,,,,,,,,,,,,,,,,,,,,,,,,,,,,,,,,,,,,,,,,,,,,,,,,,,,,,,
,,,,,,,,5e4d8eda83dc301d9395adfb,29,M,R,2020-09-10_09h45.35.270,Hybrid_Search_Task,2020.2.3,Win32,60,,,,,,,,,,,,,,,,,,,,,,,,,,,,,,,,,,,,,,,,,,,,,,,,,,,,,,,,,,,,,,,,,,,,,,,,,,,,,,,,,,,,,,,0,3,3,13,1,StimList/insect.xls,,,,,,,,,,,,,,,,,,,,,,,,,,,,,,,,,,,,,,,,,,,,,,,,,,,,,,,,,,,,,,,,,,,,,,,
,,,,,,,,5e4d8eda83dc301d9395adfb,29,M,R,2020-09-10_09h45.35.270,Hybrid_Search_Task,2020.2.3,Win32,60,,,,,,,,,,,,,,,,,,,,,,,,,,,,,,,,,,,,,,,,,,,,,,,,,,,,,,,,,,,,,,,,,,,,,,,,,,,,,,,0,0,0,12,1,Animals,primate,Stimuli/Animals/primate/primate_13.jpg,,,,,,,,,,,,,,,,,,,,,,,,,,,,,,,,,,,,,,,,,,,,,,,,,,,,,,,,,,,,,,,,,,,,,,,,,,,,,
,,,,,,,,5e4d8eda83dc301d9395adfb,29,M,R,2020-09-10_09h45.35.270,Hybrid_Search_Task,2020.2.3,Win32,60,,,,,,,,,,,,,,,,,,,,,,,,,,,,,,,,,,,,,,,,,,,,,,,,,,,,,,,,,,,,,,,,,,,,,,,,,,,,,,,0,1,1,0,1,Animals,primate,Stimuli/Animals/primate/primate_01.jpg,,,,,,,,,,,,,,,,,,,,,,,,,,,,,,,,,,,,,,,,,,,,,,,,,,,,,,,,,,,,,,,,,,,,,,,,,,,,,
,,,,,,,,5e4d8eda83dc301d9395adfb,29,M,R,2020-09-10_09h45.35.270,Hybrid_Search_Task,2020.2.3,Win32,60,,,,,,,,,,,,,,,,,,,,,,,,,,,,,,,,,,,,,,,,,,,,,,,,,,,,,,,,,,,,,,,,,,,,,,,,,,,,,,,0,2,2,3,1,Animals,primate,Stimuli/Animals/primate/primate_04.png,,,,,,,,,,,,,,,,,,,,,,,,,,,,,,,,,,,,,,,,,,,,,,,,,,,,,,,,,,,,,,,,,,,,,,,,,,,,,
,,,,,,,,5e4d8eda83dc301d9395adfb,29,M,R,2020-09-10_09h45.35.270,Hybrid_Search_Task,2020.2.3,Win32,60,,,,,,,,,,,,,,,,,,,,,,,,,,,,,,,,,,,,,,,,,,,,,,,,,,,,,,,,,,,,,,,,,,,,,,,,,,,,,,,0,3,3,1,1,Animals,primate,Stimuli/Animals/primate/primate_02.jpg,,,,,,,,,,,,,,,,,,,,,,,,,,,,,,,,,,,,,,,,,,,,,,,,,,,,,,,,,,,,,,,,,,,,,,,,,,,,,
,,,,,,,,5e4d8eda83dc301d9395adfb,29,M,R,2020-09-10_09h45.35.270,Hybrid_Search_Task,2020.2.3,Win32,60,,,,,,,,,,,,,,,,,,,,,,,,,,,,,,,,,,,,,,,,,,,,,,,,,,,,,,,,,,,,,,,,,,,,,,,,,,,,,,,0,4,4,8,1,Animals,primate,Stimuli/Animals/primate/primate_09.jpg,,,,,,,,,,,,,,,,,,,,,,,,,,,,,,,,,,,,,,,,,,,,,,,,,,,,,,,,,,,,,,,,,,,,,,,,,,,,,
,,,,,,,,5e4d8eda83dc301d9395adfb,29,M,R,2020-09-10_09h45.35.270,Hybrid_Search_Task,2020.2.3,Win32,60,,,,,,,,,,,,,,,,,,,,,,,,,,,,,,,,,,,,,,,,,,,,,,,,,,,,,,,,,,,,,,,,,,,,,,,,,,,,,,,0,5,5,7,1,Animals,primate,Stimuli/Animals/primate/primate_08.jpg,,,,,,,,,,,,,,,,,,,,,,,,,,,,,,,,,,,,,,,,,,,,,,,,,,,,,,,,,,,,,,,,,,,,,,,,,,,,,
,,,,,,,,5e4d8eda83dc301d9395adfb,29,M,R,2020-09-10_09h45.35.270,Hybrid_Search_Task,2020.2.3,Win32,60,,,,,,,,,,,,,,,,,,,,,,,,,,,,,,,,,,,,,,,,,,,,,,,,,,,,,,,,,,,,,,,,,,,,,,,,,,,,,,,0,6,6,2,1,Animals,primate,Stimuli/Animals/primate/primate_03.png,,,,,,,,,,,,,,,,,,,,,,,,,,,,,,,,,,,,,,,,,,,,,,,,,,,,,,,,,,,,,,,,,,,,,,,,,,,,,
,,,,,,,,5e4d8eda83dc301d9395adfb,29,M,R,2020-09-10_09h45.35.270,Hybrid_Search_Task,2020.2.3,Win32,60,,,,,,,,,,,,,,,,,,,,,,,,,,,,,,,,,,,,,,,,,,,,,,,,,,,,,,,,,,,,,,,,,,,,,,,,,,,,,,,0,7,7,15,1,Animals,primate,Stimuli/Animals/primate/primate_16.jpg,,,,,,,,,,,,,,,,,,,,,,,,,,,,,,,,,,,,,,,,,,,,,,,,,,,,,,,,,,,,,,,,,,,,,,,,,,,,,
,,,,,,,,5e4d8eda83dc301d9395adfb,29,M,R,2020-09-10_09h45.35.270,Hybrid_Search_Task,2020.2.3,Win32,60,,,,,,,,,,,,,,,,,,,,,,,,,,,,,,,,,,,,,,,,,,,,,,,,,,,,,,,,,,,,,,,,,,,,,,,,,,,,,,,0,8,8,9,1,Animals,primate,Stimuli/Animals/primate/primate_10.jpg,,,,,,,,,,,,,,,,,,,,,,,,,,,,,,,,,,,,,,,,,,,,,,,,,,,,,,,,,,,,,,,,,,,,,,,,,,,,,
,,,,,,,,5e4d8eda83dc301d9395adfb,29,M,R,2020-09-10_09h45.35.270,Hybrid_Search_Task,2020.2.3,Win32,60,,,,,,,,,,,,,,,,,,,,,,,,,,,,,,,,,,,,,,,,,,,,,,,,,,,,,,,,,,,,,,,,,,,,,,,,,,,,,,,0,9,9,6,1,Animals,primate,Stimuli/Animals/primate/primate_07.jpg,,,,,,,,,,,,,,,,,,,,,,,,,,,,,,,,,,,,,,,,,,,,,,,,,,,,,,,,,,,,,,,,,,,,,,,,,,,,,
,,,,,,,,5e4d8eda83dc301d9395adfb,29,M,R,2020-09-10_09h45.35.270,Hybrid_Search_Task,2020.2.3,Win32,60,,,,,,,,,,,,,,,,,,,,,,,,,,,,,,,,,,,,,,,,,,,,,,,,,,,,,,,,,,,,,,,,,,,,,,,,,,,,,,,0,10,10,16,1,Animals,primate,Stimuli/Animals/primate/primate_17.jpg,,,,,,,,,,,,,,,,,,,,,,,,,,,,,,,,,,,,,,,,,,,,,,,,,,,,,,,,,,,,,,,,,,,,,,,,,,,,,
,,,,,,,,5e4d8eda83dc301d9395adfb,29,M,R,2020-09-10_09h45.35.270,Hybrid_Search_Task,2020.2.3,Win32,60,,,,,,,,,,,,,,,,,,,,,,,,,,,,,,,,,,,,,,,,,,,,,,,,,,,,,,,,,,,,,,,,,,,,,,,,,,,,,,,0,11,11,10,1,Animals,primate,Stimuli/Animals/primate/primate_11.jpg,,,,,,,,,,,,,,,,,,,,,,,,,,,,,,,,,,,,,,,,,,,,,,,,,,,,,,,,,,,,,,,,,,,,,,,,,,,,,
,,,,,,,,5e4d8eda83dc301d9395adfb,29,M,R,2020-09-10_09h45.35.270,Hybrid_Search_Task,2020.2.3,Win32,60,,,,,,,,,,,,,,,,,,,,,,,,,,,,,,,,,,,,,,,,,,,,,,,,,,,,,,,,,,,,,,,,,,,,,,,,,,,,,,,0,12,12,5,1,Animals,primate,Stimuli/Animals/primate/primate_06.jpg,,,,,,,,,,,,,,,,,,,,,,,,,,,,,,,,,,,,,,,,,,,,,,,,,,,,,,,,,,,,,,,,,,,,,,,,,,,,,
,,,,,,,,5e4d8eda83dc301d9395adfb,29,M,R,2020-09-10_09h45.35.270,Hybrid_Search_Task,2020.2.3,Win32,60,,,,,,,,,,,,,,,,,,,,,,,,,,,,,,,,,,,,,,,,,,,,,,,,,,,,,,,,,,,,,,,,,,,,,,,,,,,,,,,0,13,13,14,1,Animals,primate,Stimuli/Animals/primate/primate_15.jpg,,,,,,,,,,,,,,,,,,,,,,,,,,,,,,,,,,,,,,,,,,,,,,,,,,,,,,,,,,,,,,,,,,,,,,,,,,,,,
,,,,,,,,5e4d8eda83dc301d9395adfb,29,M,R,2020-09-10_09h45.35.270,Hybrid_Search_Task,2020.2.3,Win32,60,,,,,,,,,,,,,,,,,,,,,,,,,,,,,,,,,,,,,,,,,,,,,,,,,,,,,,,,,,,,,,,,,,,,,,,,,,,,,,,0,14,14,13,1,Animals,primate,Stimuli/Animals/primate/primate_14.jpg,,,,,,,,,,,,,,,,,,,,,,,,,,,,,,,,,,,,,,,,,,,,,,,,,,,,,,,,,,,,,,,,,,,,,,,,,,,,,
,,,,,,,,5e4d8eda83dc301d9395adfb,29,M,R,2020-09-10_09h45.35.270,Hybrid_Search_Task,2020.2.3,Win32,60,,,,,,,,,,,,,,,,,,,,,,,,,,,,,,,,,,,,,,,,,,,,,,,,,,,,,,,,,,,,,,,,,,,,,,,,,,,,,,,0,15,15,11,1,Animals,primate,Stimuli/Animals/primate/primate_12.jpg,,,,,,,,,,,,,,,,,,,,,,,,,,,,,,,,,,,,,,,,,,,,,,,,,,,,,,,,,,,,,,,,,,,,,,,,,,,,,
,,,,,,,,5e4d8eda83dc301d9395adfb,29,M,R,2020-09-10_09h45.35.270,Hybrid_Search_Task,2020.2.3,Win32,60,,,,,,,,,,,,,,,,,,,,,,,,,,,,,,,,,,,,,,,,,,,,,,,,,,,,,,,,,,,,,,,,,,,,,,,,,,,,,,,0,16,16,4,1,Animals,primate,Stimuli/Animals/primate/primate_05.jpg,,,,,,,,,,,,,,,,,,,,,,,,,,,,,,,,,,,,,,,,,,,,,,,,,,,,,,,,,,,,,,,,,,,,,,,,,,,,,
,,,,,,,,5e4d8eda83dc301d9395adfb,29,M,R,2020-09-10_09h45.35.270,Hybrid_Search_Task,2020.2.3,Win32,60,,,,,,,,,,,,,,,,,,,,,,,,,,,,,,,,,,,,,,,,,,,,,,,,,,,,,,,,,,,,,,,,,,,,,,,,,,,,,,,,,,,,,,,0,4,4,19,1,StimList/primate.xls,,,,,,,,,,,,,,,,,,,,,,,,,,,,,,,,,,,,,,,,,,,,,,,,,,,,,,,,,,,,,,,,,,,,,,,
,,,,,,,,5e4d8eda83dc301d9395adfb,29,M,R,2020-09-10_09h45.35.270,Hybrid_Search_Task,2020.2.3,Win32,60,,,,,,,,,,,,,,,,,,,,,,,,,,,,,,,,,,,,,,,,,,,,,,,,,,,,,,,,,,,,,,,,,,,,,,,,,,,,,,,0,0,0,1,1,Animals,frog,Stimuli/Animals/frog/frog_02.jpg,,,,,,,,,,,,,,,,,,,,,,,,,,,,,,,,,,,,,,,,,,,,,,,,,,,,,,,,,,,,,,,,,,,,,,,,,,,,,
,,,,,,,,5e4d8eda83dc301d9395adfb,29,M,R,2020-09-10_09h45.35.270,Hybrid_Search_Task,2020.2.3,Win32,60,,,,,,,,,,,,,,,,,,,,,,,,,,,,,,,,,,,,,,,,,,,,,,,,,,,,,,,,,,,,,,,,,,,,,,,,,,,,,,,0,1,1,9,1,Animals,frog,Stimuli/Animals/frog/frog_10.jpg,,,,,,,,,,,,,,,,,,,,,,,,,,,,,,,,,,,,,,,,,,,,,,,,,,,,,,,,,,,,,,,,,,,,,,,,,,,,,
,,,,,,,,5e4d8eda83dc301d9395adfb,29,M,R,2020-09-10_09h45.35.270,Hybrid_Search_Task,2020.2.3,Win32,60,,,,,,,,,,,,,,,,,,,,,,,,,,,,,,,,,,,,,,,,,,,,,,,,,,,,,,,,,,,,,,,,,,,,,,,,,,,,,,,0,2,2,14,1,Animals,frog,Stimuli/Animals/frog/frog_15.jpg,,,,,,,,,,,,,,,,,,,,,,,,,,,,,,,,,,,,,,,,,,,,,,,,,,,,,,,,,,,,,,,,,,,,,,,,,,,,,
,,,,,,,,5e4d8eda83dc301d9395adfb,29,M,R,2020-09-10_09h45.35.270,Hybrid_Search_Task,2020.2.3,Win32,60,,,,,,,,,,,,,,,,,,,,,,,,,,,,,,,,,,,,,,,,,,,,,,,,,,,,,,,,,,,,,,,,,,,,,,,,,,,,,,,0,3,3,7,1,Animals,frog,Stimuli/Animals/frog/frog_08.jpg,,,,,,,,,,,,,,,,,,,,,,,,,,,,,,,,,,,,,,,,,,,,,,,,,,,,,,,,,,,,,,,,,,,,,,,,,,,,,
,,,,,,,,5e4d8eda83dc301d9395adfb,29,M,R,2020-09-10_09h45.35.270,Hybrid_Search_Task,2020.2.3,Win32,60,,,,,,,,,,,,,,,,,,,,,,,,,,,,,,,,,,,,,,,,,,,,,,,,,,,,,,,,,,,,,,,,,,,,,,,,,,,,,,,0,4,4,10,1,Animals,frog,Stimuli/Animals/frog/frog_11.jpg,,,,,,,,,,,,,,,,,,,,,,,,,,,,,,,,,,,,,,,,,,,,,,,,,,,,,,,,,,,,,,,,,,,,,,,,,,,,,
,,,,,,,,5e4d8eda83dc301d9395adfb,29,M,R,2020-09-10_09h45.35.270,Hybrid_Search_Task,2020.2.3,Win32,60,,,,,,,,,,,,,,,,,,,,,,,,,,,,,,,,,,,,,,,,,,,,,,,,,,,,,,,,,,,,,,,,,,,,,,,,,,,,,,,0,5,5,3,1,Animals,frog,Stimuli/Animals/frog/frog_04.jpg,,,,,,,,,,,,,,,,,,,,,,,,,,,,,,,,,,,,,,,,,,,,,,,,,,,,,,,,,,,,,,,,,,,,,,,,,,,,,
,,,,,,,,5e4d8eda83dc301d9395adfb,29,M,R,2020-09-10_09h45.35.270,Hybrid_Search_Task,2020.2.3,Win32,60,,,,,,,,,,,,,,,,,,,,,,,,,,,,,,,,,,,,,,,,,,,,,,,,,,,,,,,,,,,,,,,,,,,,,,,,,,,,,,,0,6,6,2,1,Animals,frog,Stimuli/Animals/frog/frog_03.jpg,,,,,,,,,,,,,,,,,,,,,,,,,,,,,,,,,,,,,,,,,,,,,,,,,,,,,,,,,,,,,,,,,,,,,,,,,,,,,
,,,,,,,,5e4d8eda83dc301d9395adfb,29,M,R,2020-09-10_09h45.35.270,Hybrid_Search_Task,2020.2.3,Win32,60,,,,,,,,,,,,,,,,,,,,,,,,,,,,,,,,,,,,,,,,,,,,,,,,,,,,,,,,,,,,,,,,,,,,,,,,,,,,,,,0,7,7,4,1,Animals,frog,Stimuli/Animals/frog/frog_05.jpg,,,,,,,,,,,,,,,,,,,,,,,,,,,,,,,,,,,,,,,,,,,,,,,,,,,,,,,,,,,,,,,,,,,,,,,,,,,,,
,,,,,,,,5e4d8eda83dc301d9395adfb,29,M,R,2020-09-10_09h45.35.270,Hybrid_Search_Task,2020.2.3,Win32,60,,,,,,,,,,,,,,,,,,,,,,,,,,,,,,,,,,,,,,,,,,,,,,,,,,,,,,,,,,,,,,,,,,,,,,,,,,,,,,,0,8,8,0,1,Animals,frog,Stimuli/Animals/frog/frog_01.jpg,,,,,,,,,,,,,,,,,,,,,,,,,,,,,,,,,,,,,,,,,,,,,,,,,,,,,,,,,,,,,,,,,,,,,,,,,,,,,
,,,,,,,,5e4d8eda83dc301d9395adfb,29,M,R,2020-09-10_09h45.35.270,Hybrid_Search_Task,2020.2.3,Win32,60,,,,,,,,,,,,,,,,,,,,,,,,,,,,,,,,,,,,,,,,,,,,,,,,,,,,,,,,,,,,,,,,,,,,,,,,,,,,,,,0,9,9,8,1,Animals,frog,Stimuli/Animals/frog/frog_09.jpg,,,,,,,,,,,,,,,,,,,,,,,,,,,,,,,,,,,,,,,,,,,,,,,,,,,,,,,,,,,,,,,,,,,,,,,,,,,,,
,,,,,,,,5e4d8eda83dc301d9395adfb,29,M,R,2020-09-10_09h45.35.270,Hybrid_Search_Task,2020.2.3,Win32,60,,,,,,,,,,,,,,,,,,,,,,,,,,,,,,,,,,,,,,,,,,,,,,,,,,,,,,,,,,,,,,,,,,,,,,,,,,,,,,,0,10,10,11,1,Animals,frog,Stimuli/Animals/frog/frog_12.jpg,,,,,,,,,,,,,,,,,,,,,,,,,,,,,,,,,,,,,,,,,,,,,,,,,,,,,,,,,,,,,,,,,,,,,,,,,,,,,
,,,,,,,,5e4d8eda83dc301d9395adfb,29,M,R,2020-09-10_09h45.35.270,Hybrid_Search_Task,2020.2.3,Win32,60,,,,,,,,,,,,,,,,,,,,,,,,,,,,,,,,,,,,,,,,,,,,,,,,,,,,,,,,,,,,,,,,,,,,,,,,,,,,,,,0,11,11,13,1,Animals,frog,Stimuli/Animals/frog/frog_14.jpg,,,,,,,,,,,,,,,,,,,,,,,,,,,,,,,,,,,,,,,,,,,,,,,,,,,,,,,,,,,,,,,,,,,,,,,,,,,,,
,,,,,,,,5e4d8eda83dc301d9395adfb,29,M,R,2020-09-10_09h45.35.270,Hybrid_Search_Task,2020.2.3,Win32,60,,,,,,,,,,,,,,,,,,,,,,,,,,,,,,,,,,,,,,,,,,,,,,,,,,,,,,,,,,,,,,,,,,,,,,,,,,,,,,,0,12,12,15,1,Animals,frog,Stimuli/Animals/frog/frog_16.jpg,,,,,,,,,,,,,,,,,,,,,,,,,,,,,,,,,,,,,,,,,,,,,,,,,,,,,,,,,,,,,,,,,,,,,,,,,,,,,
,,,,,,,,5e4d8eda83dc301d9395adfb,29,M,R,2020-09-10_09h45.35.270,Hybrid_Search_Task,2020.2.3,Win32,60,,,,,,,,,,,,,,,,,,,,,,,,,,,,,,,,,,,,,,,,,,,,,,,,,,,,,,,,,,,,,,,,,,,,,,,,,,,,,,,0,13,13,5,1,Animals,frog,Stimuli/Animals/frog/frog_06.jpg,,,,,,,,,,,,,,,,,,,,,,,,,,,,,,,,,,,,,,,,,,,,,,,,,,,,,,,,,,,,,,,,,,,,,,,,,,,,,
,,,,,,,,5e4d8eda83dc301d9395adfb,29,M,R,2020-09-10_09h45.35.270,Hybrid_Search_Task,2020.2.3,Win32,60,,,,,,,,,,,,,,,,,,,,,,,,,,,,,,,,,,,,,,,,,,,,,,,,,,,,,,,,,,,,,,,,,,,,,,,,,,,,,,,0,14,14,16,1,Animals,frog,Stimuli/Animals/frog/frog_17.jpg,,,,,,,,,,,,,,,,,,,,,,,,,,,,,,,,,,,,,,,,,,,,,,,,,,,,,,,,,,,,,,,,,,,,,,,,,,,,,
,,,,,,,,5e4d8eda83dc301d9395adfb,29,M,R,2020-09-10_09h45.35.270,Hybrid_Search_Task,2020.2.3,Win32,60,,,,,,,,,,,,,,,,,,,,,,,,,,,,,,,,,,,,,,,,,,,,,,,,,,,,,,,,,,,,,,,,,,,,,,,,,,,,,,,0,15,15,6,1,Animals,frog,Stimuli/Animals/frog/frog_07.jpg,,,,,,,,,,,,,,,,,,,,,,,,,,,,,,,,,,,,,,,,,,,,,,,,,,,,,,,,,,,,,,,,,,,,,,,,,,,,,
,,,,,,,,5e4d8eda83dc301d9395adfb,29,M,R,2020-09-10_09h45.35.270,Hybrid_Search_Task,2020.2.3,Win32,60,,,,,,,,,,,,,,,,,,,,,,,,,,,,,,,,,,,,,,,,,,,,,,,,,,,,,,,,,,,,,,,,,,,,,,,,,,,,,,,0,16,16,12,1,Animals,frog,Stimuli/Animals/frog/frog_13.jpg,,,,,,,,,,,,,,,,,,,,,,,,,,,,,,,,,,,,,,,,,,,,,,,,,,,,,,,,,,,,,,,,,,,,,,,,,,,,,
,,,,,,,,5e4d8eda83dc301d9395adfb,29,M,R,2020-09-10_09h45.35.270,Hybrid_Search_Task,2020.2.3,Win32,60,,,,,,,,,,,,,,,,,,,,,,,,,,,,,,,,,,,,,,,,,,,,,,,,,,,,,,,,,,,,,,,,,,,,,,,,,,,,,,,,,,,,,,,0,5,5,10,1,StimList/frog.xls,,,,,,,,,,,,,,,,,,,,,,,,,,,,,,,,,,,,,,,,,,,,,,,,,,,,,,,,,,,,,,,,,,,,,,,
,,,,,,,,5e4d8eda83dc301d9395adfb,29,M,R,2020-09-10_09h45.35.270,Hybrid_Search_Task,2020.2.3,Win32,60,,,,,,,,,,,,,,,,,,,,,,,,,,,,,,,,,,,,,,,,,,,,,,,,,,,,,,,,,,,,,,,,,,,,,,,,,,,,,,,0,0,0,15,1,Animals,beast,Stimuli/Animals/beast/beast_16.jpg,,,,,,,,,,,,,,,,,,,,,,,,,,,,,,,,,,,,,,,,,,,,,,,,,,,,,,,,,,,,,,,,,,,,,,,,,,,,,
,,,,,,,,5e4d8eda83dc301d9395adfb,29,M,R,2020-09-10_09h45.35.270,Hybrid_Search_Task,2020.2.3,Win32,60,,,,,,,,,,,,,,,,,,,,,,,,,,,,,,,,,,,,,,,,,,,,,,,,,,,,,,,,,,,,,,,,,,,,,,,,,,,,,,,0,1,1,2,1,Animals,beast,Stimuli/Animals/beast/beast_03.jpg,,,,,,,,,,,,,,,,,,,,,,,,,,,,,,,,,,,,,,,,,,,,,,,,,,,,,,,,,,,,,,,,,,,,,,,,,,,,,
,,,,,,,,5e4d8eda83dc301d9395adfb,29,M,R,2020-09-10_09h45.35.270,Hybrid_Search_Task,2020.2.3,Win32,60,,,,,,,,,,,,,,,,,,,,,,,,,,,,,,,,,,,,,,,,,,,,,,,,,,,,,,,,,,,,,,,,,,,,,,,,,,,,,,,0,2,2,1,1,Animals,beast,Stimuli/Animals/beast/beast_02.jpg,,,,,,,,,,,,,,,,,,,,,,,,,,,,,,,,,,,,,,,,,,,,,,,,,,,,,,,,,,,,,,,,,,,,,,,,,,,,,
,,,,,,,,5e4d8eda83dc301d9395adfb,29,M,R,2020-09-10_09h45.35.270,Hybrid_Search_Task,2020.2.3,Win32,60,,,,,,,,,,,,,,,,,,,,,,,,,,,,,,,,,,,,,,,,,,,,,,,,,,,,,,,,,,,,,,,,,,,,,,,,,,,,,,,0,3,3,13,1,Animals,beast,Stimuli/Animals/beast/beast_14.jpg,,,,,,,,,,,,,,,,,,,,,,,,,,,,,,,,,,,,,,,,,,,,,,,,,,,,,,,,,,,,,,,,,,,,,,,,,,,,,
,,,,,,,,5e4d8eda83dc301d9395adfb,29,M,R,2020-09-10_09h45.35.270,Hybrid_Search_Task,2020.2.3,Win32,60,,,,,,,,,,,,,,,,,,,,,,,,,,,,,,,,,,,,,,,,,,,,,,,,,,,,,,,,,,,,,,,,,,,,,,,,,,,,,,,0,4,4,10,1,Animals,beast,Stimuli/Animals/beast/beast_11.jpg,,,,,,,,,,,,,,,,,,,,,,,,,,,,,,,,,,,,,,,,,,,,,,,,,,,,,,,,,,,,,,,,,,,,,,,,,,,,,
,,,,,,,,5e4d8eda83dc301d9395adfb,29,M,R,2020-09-10_09h45.35.270,Hybrid_Search_Task,2020.2.3,Win32,60,,,,,,,,,,,,,,,,,,,,,,,,,,,,,,,,,,,,,,,,,,,,,,,,,,,,,,,,,,,,,,,,,,,,,,,,,,,,,,,0,5,5,16,1,Animals,beast,Stimuli/Animals/beast/beast_17.jpg,,,,,,,,,,,,,,,,,,,,,,,,,,,,,,,,,,,,,,,,,,,,,,,,,,,,,,,,,,,,,,,,,,,,,,,,,,,,,
,,,,,,,,5e4d8eda83dc301d9395adfb,29,M,R,2020-09-10_09h45.35.270,Hybrid_Search_Task,2020.2.3,Win32,60,,,,,,,,,,,,,,,,,,,,,,,,,,,,,,,,,,,,,,,,,,,,,,,,,,,,,,,,,,,,,,,,,,,,,,,,,,,,,,,0,6,6,4,1,Animals,beast,Stimuli/Animals/beast/beast_05.jpg,,,,,,,,,,,,,,,,,,,,,,,,,,,,,,,,,,,,,,,,,,,,,,,,,,,,,,,,,,,,,,,,,,,,,,,,,,,,,
,,,,,,,,5e4d8eda83dc301d9395adfb,29,M,R,2020-09-10_09h45.35.270,Hybrid_Search_Task,2020.2.3,Win32,60,,,,,,,,,,,,,,,,,,,,,,,,,,,,,,,,,,,,,,,,,,,,,,,,,,,,,,,,,,,,,,,,,,,,,,,,,,,,,,,0,7,7,9,1,Animals,beast,Stimuli/Animals/beast/beast_10.jpg,,,,,,,,,,,,,,,,,,,,,,,,,,,,,,,,,,,,,,,,,,,,,,,,,,,,,,,,,,,,,,,,,,,,,,,,,,,,,
,,,,,,,,5e4d8eda83dc301d9395adfb,29,M,R,2020-09-10_09h45.35.270,Hybrid_Search_Task,2020.2.3,Win32,60,,,,,,,,,,,,,,,,,,,,,,,,,,,,,,,,,,,,,,,,,,,,,,,,,,,,,,,,,,,,,,,,,,,,,,,,,,,,,,,0,8,8,6,1,Animals,beast,Stimuli/Animals/beast/beast_07.jpg,,,,,,,,,,,,,,,,,,,,,,,,,,,,,,,,,,,,,,,,,,,,,,,,,,,,,,,,,,,,,,,,,,,,,,,,,,,,,
,,,,,,,,5e4d8eda83dc301d9395adfb,29,M,R,2020-09-10_09h45.35.270,Hybrid_Search_Task,2020.2.3,Win32,60,,,,,,,,,,,,,,,,,,,,,,,,,,,,,,,,,,,,,,,,,,,,,,,,,,,,,,,,,,,,,,,,,,,,,,,,,,,,,,,0,9,9,3,1,Animals,beast,Stimuli/Animals/beast/beast_04.jpg,,,,,,,,,,,,,,,,,,,,,,,,,,,,,,,,,,,,,,,,,,,,,,,,,,,,,,,,,,,,,,,,,,,,,,,,,,,,,
,,,,,,,,5e4d8eda83dc301d9395adfb,29,M,R,2020-09-10_09h45.35.270,Hybrid_Search_Task,2020.2.3,Win32,60,,,,,,,,,,,,,,,,,,,,,,,,,,,,,,,,,,,,,,,,,,,,,,,,,,,,,,,,,,,,,,,,,,,,,,,,,,,,,,,0,10,10,7,1,Animals,beast,Stimuli/Animals/beast/beast_08.jpg,,,,,,,,,,,,,,,,,,,,,,,,,,,,,,,,,,,,,,,,,,,,,,,,,,,,,,,,,,,,,,,,,,,,,,,,,,,,,
,,,,,,,,5e4d8eda83dc301d9395adfb,29,M,R,2020-09-10_09h45.35.270,Hybrid_Search_Task,2020.2.3,Win32,60,,,,,,,,,,,,,,,,,,,,,,,,,,,,,,,,,,,,,,,,,,,,,,,,,,,,,,,,,,,,,,,,,,,,,,,,,,,,,,,0,11,11,12,1,Animals,beast,Stimuli/Animals/beast/beast_13.jpg,,,,,,,,,,,,,,,,,,,,,,,,,,,,,,,,,,,,,,,,,,,,,,,,,,,,,,,,,,,,,,,,,,,,,,,,,,,,,
,,,,,,,,5e4d8eda83dc301d9395adfb,29,M,R,2020-09-10_09h45.35.270,Hybrid_Search_Task,2020.2.3,Win32,60,,,,,,,,,,,,,,,,,,,,,,,,,,,,,,,,,,,,,,,,,,,,,,,,,,,,,,,,,,,,,,,,,,,,,,,,,,,,,,,0,12,12,14,1,Animals,beast,Stimuli/Animals/beast/beast_15.jpg,,,,,,,,,,,,,,,,,,,,,,,,,,,,,,,,,,,,,,,,,,,,,,,,,,,,,,,,,,,,,,,,,,,,,,,,,,,,,
,,,,,,,,5e4d8eda83dc301d9395adfb,29,M,R,2020-09-10_09h45.35.270,Hybrid_Search_Task,2020.2.3,Win32,60,,,,,,,,,,,,,,,,,,,,,,,,,,,,,,,,,,,,,,,,,,,,,,,,,,,,,,,,,,,,,,,,,,,,,,,,,,,,,,,0,13,13,5,1,Animals,beast,Stimuli/Animals/beast/beast_06.jpg,,,,,,,,,,,,,,,,,,,,,,,,,,,,,,,,,,,,,,,,,,,,,,,,,,,,,,,,,,,,,,,,,,,,,,,,,,,,,
,,,,,,,,5e4d8eda83dc301d9395adfb,29,M,R,2020-09-10_09h45.35.270,Hybrid_Search_Task,2020.2.3,Win32,60,,,,,,,,,,,,,,,,,,,,,,,,,,,,,,,,,,,,,,,,,,,,,,,,,,,,,,,,,,,,,,,,,,,,,,,,,,,,,,,0,14,14,0,1,Animals,beast,Stimuli/Animals/beast/beast_01.jpg,,,,,,,,,,,,,,,,,,,,,,,,,,,,,,,,,,,,,,,,,,,,,,,,,,,,,,,,,,,,,,,,,,,,,,,,,,,,,
,,,,,,,,5e4d8eda83dc301d9395adfb,29,M,R,2020-09-10_09h45.35.270,Hybrid_Search_Task,2020.2.3,Win32,60,,,,,,,,,,,,,,,,,,,,,,,,,,,,,,,,,,,,,,,,,,,,,,,,,,,,,,,,,,,,,,,,,,,,,,,,,,,,,,,0,15,15,11,1,Animals,beast,Stimuli/Animals/beast/beast_12.jpg,,,,,,,,,,,,,,,,,,,,,,,,,,,,,,,,,,,,,,,,,,,,,,,,,,,,,,,,,,,,,,,,,,,,,,,,,,,,,
,,,,,,,,5e4d8eda83dc301d9395adfb,29,M,R,2020-09-10_09h45.35.270,Hybrid_Search_Task,2020.2.3,Win32,60,,,,,,,,,,,,,,,,,,,,,,,,,,,,,,,,,,,,,,,,,,,,,,,,,,,,,,,,,,,,,,,,,,,,,,,,,,,,,,,0,16,16,8,1,Animals,beast,Stimuli/Animals/beast/beast_09.jpg,,,,,,,,,,,,,,,,,,,,,,,,,,,,,,,,,,,,,,,,,,,,,,,,,,,,,,,,,,,,,,,,,,,,,,,,,,,,,
,,,,,,,,5e4d8eda83dc301d9395adfb,29,M,R,2020-09-10_09h45.35.270,Hybrid_Search_Task,2020.2.3,Win32,60,,,,,,,,,,,,,,,,,,,,,,,,,,,,,,,,,,,,,,,,,,,,,,,,,,,,,,,,,,,,,,,,,,,,,,,,,,,,,,,,,,,,,,,0,6,6,0,1,StimList/beast.xls,,,,,,,,,,,,,,,,,,,,,,,,,,,,,,,,,,,,,,,,,,,,,,,,,,,,,,,,,,,,,,,,,,,,,,,
,,,,,,,,5e4d8eda83dc301d9395adfb,29,M,R,2020-09-10_09h45.35.270,Hybrid_Search_Task,2020.2.3,Win32,60,,,,,,,,,,,,,,,,,,,,,,,,,,,,,,,,,,,,,,,,,,,,,,,,,,,,,,,,,,,,,,,,,,,,,,,,,,,,,,,0,0,0,2,1,Animals,hoofed,Stimuli/Animals/hoofed/hoofed_03.jpg,,,,,,,,,,,,,,,,,,,,,,,,,,,,,,,,,,,,,,,,,,,,,,,,,,,,,,,,,,,,,,,,,,,,,,,,,,,,,
,,,,,,,,5e4d8eda83dc301d9395adfb,29,M,R,2020-09-10_09h45.35.270,Hybrid_Search_Task,2020.2.3,Win32,60,,,,,,,,,,,,,,,,,,,,,,,,,,,,,,,,,,,,,,,,,,,,,,,,,,,,,,,,,,,,,,,,,,,,,,,,,,,,,,,0,1,1,8,1,Animals,hoofed,Stimuli/Animals/hoofed/hoofed_09.jpg,,,,,,,,,,,,,,,,,,,,,,,,,,,,,,,,,,,,,,,,,,,,,,,,,,,,,,,,,,,,,,,,,,,,,,,,,,,,,
,,,,,,,,5e4d8eda83dc301d9395adfb,29,M,R,2020-09-10_09h45.35.270,Hybrid_Search_Task,2020.2.3,Win32,60,,,,,,,,,,,,,,,,,,,,,,,,,,,,,,,,,,,,,,,,,,,,,,,,,,,,,,,,,,,,,,,,,,,,,,,,,,,,,,,0,2,2,0,1,Animals,hoofed,Stimuli/Animals/hoofed/hoofed_01.jpg,,,,,,,,,,,,,,,,,,,,,,,,,,,,,,,,,,,,,,,,,,,,,,,,,,,,,,,,,,,,,,,,,,,,,,,,,,,,,
,,,,,,,,5e4d8eda83dc301d9395adfb,29,M,R,2020-09-10_09h45.35.270,Hybrid_Search_Task,2020.2.3,Win32,60,,,,,,,,,,,,,,,,,,,,,,,,,,,,,,,,,,,,,,,,,,,,,,,,,,,,,,,,,,,,,,,,,,,,,,,,,,,,,,,0,3,3,4,1,Animals,hoofed,Stimuli/Animals/hoofed/hoofed_05.jpg,,,,,,,,,,,,,,,,,,,,,,,,,,,,,,,,,,,,,,,,,,,,,,,,,,,,,,,,,,,,,,,,,,,,,,,,,,,,,
,,,,,,,,5e4d8eda83dc301d9395adfb,29,M,R,2020-09-10_09h45.35.270,Hybrid_Search_Task,2020.2.3,Win32,60,,,,,,,,,,,,,,,,,,,,,,,,,,,,,,,,,,,,,,,,,,,,,,,,,,,,,,,,,,,,,,,,,,,,,,,,,,,,,,,0,4,4,1,1,Animals,hoofed,Stimuli/Animals/hoofed/hoofed_02.jpg,,,,,,,,,,,,,,,,,,,,,,,,,,,,,,,,,,,,,,,,,,,,,,,,,,,,,,,,,,,,,,,,,,,,,,,,,,,,,
,,,,,,,,5e4d8eda83dc301d9395adfb,29,M,R,2020-09-10_09h45.35.270,Hybrid_Search_Task,2020.2.3,Win32,60,,,,,,,,,,,,,,,,,,,,,,,,,,,,,,,,,,,,,,,,,,,,,,,,,,,,,,,,,,,,,,,,,,,,,,,,,,,,,,,0,5,5,10,1,Animals,hoofed,Stimuli/Animals/hoofed/hoofed_11.jpg,,,,,,,,,,,,,,,,,,,,,,,,,,,,,,,,,,,,,,,,,,,,,,,,,,,,,,,,,,,,,,,,,,,,,,,,,,,,,
,,,,,,,,5e4d8eda83dc301d9395adfb,29,M,R,2020-09-10_09h45.35.270,Hybrid_Search_Task,2020.2.3,Win32,60,,,,,,,,,,,,,,,,,,,,,,,,,,,,,,,,,,,,,,,,,,,,,,,,,,,,,,,,,,,,,,,,,,,,,,,,,,,,,,,0,6,6,15,1,Animals,hoofed,Stimuli/Animals/hoofed/hoofed_16.jpg,,,,,,,,,,,,,,,,,,,,,,,,,,,,,,,,,,,,,,,,,,,,,,,,,,,,,,,,,,,,,,,,,,,,,,,,,,,,,
,,,,,,,,5e4d8eda83dc301d9395adfb,29,M,R,2020-09-10_09h45.35.270,Hybrid_Search_Task,2020.2.3,Win32,60,,,,,,,,,,,,,,,,,,,,,,,,,,,,,,,,,,,,,,,,,,,,,,,,,,,,,,,,,,,,,,,,,,,,,,,,,,,,,,,0,7,7,5,1,Animals,hoofed,Stimuli/Animals/hoofed/hoofed_06.jpg,,,,,,,,,,,,,,,,,,,,,,,,,,,,,,,,,,,,,,,,,,,,,,,,,,,,,,,,,,,,,,,,,,,,,,,,,,,,,
,,,,,,,,5e4d8eda83dc301d9395adfb,29,M,R,2020-09-10_09h45.35.270,Hybrid_Search_Task,2020.2.3,Win32,60,,,,,,,,,,,,,,,,,,,,,,,,,,,,,,,,,,,,,,,,,,,,,,,,,,,,,,,,,,,,,,,,,,,,,,,,,,,,,,,0,8,8,9,1,Animals,hoofed,Stimuli/Animals/hoofed/hoofed_10.jpg,,,,,,,,,,,,,,,,,,,,,,,,,,,,,,,,,,,,,,,,,,,,,,,,,,,,,,,,,,,,,,,,,,,,,,,,,,,,,
,,,,,,,,5e4d8eda83dc301d9395adfb,29,M,R,2020-09-10_09h45.35.270,Hybrid_Search_Task,2020.2.3,Win32,60,,,,,,,,,,,,,,,,,,,,,,,,,,,,,,,,,,,,,,,,,,,,,,,,,,,,,,,,,,,,,,,,,,,,,,,,,,,,,,,0,9,9,16,1,Animals,hoofed,Stimuli/Animals/hoofed/hoofed_17.jpg,,,,,,,,,,,,,,,,,,,,,,,,,,,,,,,,,,,,,,,,,,,,,,,,,,,,,,,,,,,,,,,,,,,,,,,,,,,,,
,,,,,,,,5e4d8eda83dc301d9395adfb,29,M,R,2020-09-10_09h45.35.270,Hybrid_Search_Task,2020.2.3,Win32,60,,,,,,,,,,,,,,,,,,,,,,,,,,,,,,,,,,,,,,,,,,,,,,,,,,,,,,,,,,,,,,,,,,,,,,,,,,,,,,,0,10,10,14,1,Animals,hoofed,Stimuli/Animals/hoofed/hoofed_15.jpg,,,,,,,,,,,,,,,,,,,,,,,,,,,,,,,,,,,,,,,,,,,,,,,,,,,,,,,,,,,,,,,,,,,,,,,,,,,,,
,,,,,,,,5e4d8eda83dc301d9395adfb,29,M,R,2020-09-10_09h45.35.270,Hybrid_Search_Task,2020.2.3,Win32,60,,,,,,,,,,,,,,,,,,,,,,,,,,,,,,,,,,,,,,,,,,,,,,,,,,,,,,,,,,,,,,,,,,,,,,,,,,,,,,,0,11,11,11,1,Animals,hoofed,Stimuli/Animals/hoofed/hoofed_12.jpg,,,,,,,,,,,,,,,,,,,,,,,,,,,,,,,,,,,,,,,,,,,,,,,,,,,,,,,,,,,,,,,,,,,,,,,,,,,,,
,,,,,,,,5e4d8eda83dc301d9395adfb,29,M,R,2020-09-10_09h45.35.270,Hybrid_Search_Task,2020.2.3,Win32,60,,,,,,,,,,,,,,,,,,,,,,,,,,,,,,,,,,,,,,,,,,,,,,,,,,,,,,,,,,,,,,,,,,,,,,,,,,,,,,,0,12,12,13,1,Animals,hoofed,Stimuli/Animals/hoofed/hoofed_14.jpg,,,,,,,,,,,,,,,,,,,,,,,,,,,,,,,,,,,,,,,,,,,,,,,,,,,,,,,,,,,,,,,,,,,,,,,,,,,,,
,,,,,,,,5e4d8eda83dc301d9395adfb,29,M,R,2020-09-10_09h45.35.270,Hybrid_Search_Task,2020.2.3,Win32,60,,,,,,,,,,,,,,,,,,,,,,,,,,,,,,,,,,,,,,,,,,,,,,,,,,,,,,,,,,,,,,,,,,,,,,,,,,,,,,,0,13,13,7,1,Animals,hoofed,Stimuli/Animals/hoofed/hoofed_08.jpg,,,,,,,,,,,,,,,,,,,,,,,,,,,,,,,,,,,,,,,,,,,,,,,,,,,,,,,,,,,,,,,,,,,,,,,,,,,,,
,,,,,,,,5e4d8eda83dc301d9395adfb,29,M,R,2020-09-10_09h45.35.270,Hybrid_Search_Task,2020.2.3,Win32,60,,,,,,,,,,,,,,,,,,,,,,,,,,,,,,,,,,,,,,,,,,,,,,,,,,,,,,,,,,,,,,,,,,,,,,,,,,,,,,,0,14,14,3,1,Animals,hoofed,Stimuli/Animals/hoofed/hoofed_04.jpg,,,,,,,,,,,,,,,,,,,,,,,,,,,,,,,,,,,,,,,,,,,,,,,,,,,,,,,,,,,,,,,,,,,,,,,,,,,,,
,,,,,,,,5e4d8eda83dc301d9395adfb,29,M,R,2020-09-10_09h45.35.270,Hybrid_Search_Task,2020.2.3,Win32,60,,,,,,,,,,,,,,,,,,,,,,,,,,,,,,,,,,,,,,,,,,,,,,,,,,,,,,,,,,,,,,,,,,,,,,,,,,,,,,,0,15,15,12,1,Animals,hoofed,Stimuli/Animals/hoofed/hoofed_13.jpg,,,,,,,,,,,,,,,,,,,,,,,,,,,,,,,,,,,,,,,,,,,,,,,,,,,,,,,,,,,,,,,,,,,,,,,,,,,,,
,,,,,,,,5e4d8eda83dc301d9395adfb,29,M,R,2020-09-10_09h45.35.270,Hybrid_Search_Task,2020.2.3,Win32,60,,,,,,,,,,,,,,,,,,,,,,,,,,,,,,,,,,,,,,,,,,,,,,,,,,,,,,,,,,,,,,,,,,,,,,,,,,,,,,,0,16,16,6,1,Animals,hoofed,Stimuli/Animals/hoofed/hoofed_07.jpg,,,,,,,,,,,,,,,,,,,,,,,,,,,,,,,,,,,,,,,,,,,,,,,,,,,,,,,,,,,,,,,,,,,,,,,,,,,,,
,,,,,,,,5e4d8eda83dc301d9395adfb,29,M,R,2020-09-10_09h45.35.270,Hybrid_Search_Task,2020.2.3,Win32,60,,,,,,,,,,,,,,,,,,,,,,,,,,,,,,,,,,,,,,,,,,,,,,,,,,,,,,,,,,,,,,,,,,,,,,,,,,,,,,,,,,,,,,,0,7,7,11,1,StimList/hoofed.xls,,,,,,,,,,,,,,,,,,,,,,,,,,,,,,,,,,,,,,,,,,,,,,,,,,,,,,,,,,,,,,,,,,,,,,,
,,,,,,,,5e4d8eda83dc301d9395adfb,29,M,R,2020-09-10_09h45.35.270,Hybrid_Search_Task,2020.2.3,Win32,60,,,,,,,,,,,,,,,,,,,,,,,,,,,,,,,,,,,,,,,,,,,,,,,,,,,,,,,,,,,,,,,,,,,,,,,,,,,,,,,0,0,0,14,1,Animals,deer,Stimuli/Animals/deer/deer_15.jpg,,,,,,,,,,,,,,,,,,,,,,,,,,,,,,,,,,,,,,,,,,,,,,,,,,,,,,,,,,,,,,,,,,,,,,,,,,,,,
,,,,,,,,5e4d8eda83dc301d9395adfb,29,M,R,2020-09-10_09h45.35.270,Hybrid_Search_Task,2020.2.3,Win32,60,,,,,,,,,,,,,,,,,,,,,,,,,,,,,,,,,,,,,,,,,,,,,,,,,,,,,,,,,,,,,,,,,,,,,,,,,,,,,,,0,1,1,9,1,Animals,deer,Stimuli/Animals/deer/deer_10.jpg,,,,,,,,,,,,,,,,,,,,,,,,,,,,,,,,,,,,,,,,,,,,,,,,,,,,,,,,,,,,,,,,,,,,,,,,,,,,,
,,,,,,,,5e4d8eda83dc301d9395adfb,29,M,R,2020-09-10_09h45.35.270,Hybrid_Search_Task,2020.2.3,Win32,60,,,,,,,,,,,,,,,,,,,,,,,,,,,,,,,,,,,,,,,,,,,,,,,,,,,,,,,,,,,,,,,,,,,,,,,,,,,,,,,0,2,2,16,1,Animals,deer,Stimuli/Animals/deer/deer_17.jpg,,,,,,,,,,,,,,,,,,,,,,,,,,,,,,,,,,,,,,,,,,,,,,,,,,,,,,,,,,,,,,,,,,,,,,,,,,,,,
,,,,,,,,5e4d8eda83dc301d9395adfb,29,M,R,2020-09-10_09h45.35.270,Hybrid_Search_Task,2020.2.3,Win32,60,,,,,,,,,,,,,,,,,,,,,,,,,,,,,,,,,,,,,,,,,,,,,,,,,,,,,,,,,,,,,,,,,,,,,,,,,,,,,,,0,3,3,4,1,Animals,deer,Stimuli/Animals/deer/deer_05.jpg,,,,,,,,,,,,,,,,,,,,,,,,,,,,,,,,,,,,,,,,,,,,,,,,,,,,,,,,,,,,,,,,,,,,,,,,,,,,,
,,,,,,,,5e4d8eda83dc301d9395adfb,29,M,R,2020-09-10_09h45.35.270,Hybrid_Search_Task,2020.2.3,Win32,60,,,,,,,,,,,,,,,,,,,,,,,,,,,,,,,,,,,,,,,,,,,,,,,,,,,,,,,,,,,,,,,,,,,,,,,,,,,,,,,0,4,4,13,1,Animals,deer,Stimuli/Animals/deer/deer_14.jpg,,,,,,,,,,,,,,,,,,,,,,,,,,,,,,,,,,,,,,,,,,,,,,,,,,,,,,,,,,,,,,,,,,,,,,,,,,,,,
,,,,,,,,5e4d8eda83dc301d9395adfb,29,M,R,2020-09-10_09h45.35.270,Hybrid_Search_Task,2020.2.3,Win32,60,,,,,,,,,,,,,,,,,,,,,,,,,,,,,,,,,,,,,,,,,,,,,,,,,,,,,,,,,,,,,,,,,,,,,,,,,,,,,,,0,5,5,11,1,Animals,deer,Stimuli/Animals/deer/deer_12.jpg,,,,,,,,,,,,,,,,,,,,,,,,,,,,,,,,,,,,,,,,,,,,,,,,,,,,,,,,,,,,,,,,,,,,,,,,,,,,,
,,,,,,,,5e4d8eda83dc301d9395adfb,29,M,R,2020-09-10_09h45.35.270,Hybrid_Search_Task,2020.2.3,Win32,60,,,,,,,,,,,,,,,,,,,,,,,,,,,,,,,,,,,,,,,,,,,,,,,,,,,,,,,,,,,,,,,,,,,,,,,,,,,,,,,0,6,6,12,1,Animals,deer,Stimuli/Animals/deer/deer_13.jpg,,,,,,,,,,,,,,,,,,,,,,,,,,,,,,,,,,,,,,,,,,,,,,,,,,,,,,,,,,,,,,,,,,,,,,,,,,,,,
,,,,,,,,5e4d8eda83dc301d9395adfb,29,M,R,2020-09-10_09h45.35.270,Hybrid_Search_Task,2020.2.3,Win32,60,,,,,,,,,,,,,,,,,,,,,,,,,,,,,,,,,,,,,,,,,,,,,,,,,,,,,,,,,,,,,,,,,,,,,,,,,,,,,,,0,7,7,7,1,Animals,deer,Stimuli/Animals/deer/deer_08.jpg,,,,,,,,,,,,,,,,,,,,,,,,,,,,,,,,,,,,,,,,,,,,,,,,,,,,,,,,,,,,,,,,,,,,,,,,,,,,,
,,,,,,,,5e4d8eda83dc301d9395adfb,29,M,R,2020-09-10_09h45.35.270,Hybrid_Search_Task,2020.2.3,Win32,60,,,,,,,,,,,,,,,,,,,,,,,,,,,,,,,,,,,,,,,,,,,,,,,,,,,,,,,,,,,,,,,,,,,,,,,,,,,,,,,0,8,8,8,1,Animals,deer,Stimuli/Animals/deer/deer_09.jpg,,,,,,,,,,,,,,,,,,,,,,,,,,,,,,,,,,,,,,,,,,,,,,,,,,,,,,,,,,,,,,,,,,,,,,,,,,,,,
,,,,,,,,5e4d8eda83dc301d9395adfb,29,M,R,2020-09-10_09h45.35.270,Hybrid_Search_Task,2020.2.3,Win32,60,,,,,,,,,,,,,,,,,,,,,,,,,,,,,,,,,,,,,,,,,,,,,,,,,,,,,,,,,,,,,,,,,,,,,,,,,,,,,,,0,9,9,2,1,Animals,deer,Stimuli/Animals/deer/deer_03.jpg,,,,,,,,,,,,,,,,,,,,,,,,,,,,,,,,,,,,,,,,,,,,,,,,,,,,,,,,,,,,,,,,,,,,,,,,,,,,,
,,,,,,,,5e4d8eda83dc301d9395adfb,29,M,R,2020-09-10_09h45.35.270,Hybrid_Search_Task,2020.2.3,Win32,60,,,,,,,,,,,,,,,,,,,,,,,,,,,,,,,,,,,,,,,,,,,,,,,,,,,,,,,,,,,,,,,,,,,,,,,,,,,,,,,0,10,10,5,1,Animals,deer,Stimuli/Animals/deer/deer_06.jpg,,,,,,,,,,,,,,,,,,,,,,,,,,,,,,,,,,,,,,,,,,,,,,,,,,,,,,,,,,,,,,,,,,,,,,,,,,,,,
,,,,,,,,5e4d8eda83dc301d9395adfb,29,M,R,2020-09-10_09h45.35.270,Hybrid_Search_Task,2020.2.3,Win32,60,,,,,,,,,,,,,,,,,,,,,,,,,,,,,,,,,,,,,,,,,,,,,,,,,,,,,,,,,,,,,,,,,,,,,,,,,,,,,,,0,11,11,1,1,Animals,deer,Stimuli/Animals/deer/deer_02.jpg,,,,,,,,,,,,,,,,,,,,,,,,,,,,,,,,,,,,,,,,,,,,,,,,,,,,,,,,,,,,,,,,,,,,,,,,,,,,,
,,,,,,,,5e4d8eda83dc301d9395adfb,29,M,R,2020-09-10_09h45.35.270,Hybrid_Search_Task,2020.2.3,Win32,60,,,,,,,,,,,,,,,,,,,,,,,,,,,,,,,,,,,,,,,,,,,,,,,,,,,,,,,,,,,,,,,,,,,,,,,,,,,,,,,0,12,12,3,1,Animals,deer,Stimuli/Animals/deer/deer_04.jpg,,,,,,,,,,,,,,,,,,,,,,,,,,,,,,,,,,,,,,,,,,,,,,,,,,,,,,,,,,,,,,,,,,,,,,,,,,,,,
,,,,,,,,5e4d8eda83dc301d9395adfb,29,M,R,2020-09-10_09h45.35.270,Hybrid_Search_Task,2020.2.3,Win32,60,,,,,,,,,,,,,,,,,,,,,,,,,,,,,,,,,,,,,,,,,,,,,,,,,,,,,,,,,,,,,,,,,,,,,,,,,,,,,,,0,13,13,0,1,Animals,deer,Stimuli/Animals/deer/deer_01.jpg,,,,,,,,,,,,,,,,,,,,,,,,,,,,,,,,,,,,,,,,,,,,,,,,,,,,,,,,,,,,,,,,,,,,,,,,,,,,,
,,,,,,,,5e4d8eda83dc301d9395adfb,29,M,R,2020-09-10_09h45.35.270,Hybrid_Search_Task,2020.2.3,Win32,60,,,,,,,,,,,,,,,,,,,,,,,,,,,,,,,,,,,,,,,,,,,,,,,,,,,,,,,,,,,,,,,,,,,,,,,,,,,,,,,0,14,14,10,1,Animals,deer,Stimuli/Animals/deer/deer_11.jpg,,,,,,,,,,,,,,,,,,,,,,,,,,,,,,,,,,,,,,,,,,,,,,,,,,,,,,,,,,,,,,,,,,,,,,,,,,,,,
,,,,,,,,5e4d8eda83dc301d9395adfb,29,M,R,2020-09-10_09h45.35.270,Hybrid_Search_Task,2020.2.3,Win32,60,,,,,,,,,,,,,,,,,,,,,,,,,,,,,,,,,,,,,,,,,,,,,,,,,,,,,,,,,,,,,,,,,,,,,,,,,,,,,,,0,15,15,6,1,Animals,deer,Stimuli/Animals/deer/deer_07.jpg,,,,,,,,,,,,,,,,,,,,,,,,,,,,,,,,,,,,,,,,,,,,,,,,,,,,,,,,,,,,,,,,,,,,,,,,,,,,,
,,,,,,,,5e4d8eda83dc301d9395adfb,29,M,R,2020-09-10_09h45.35.270,Hybrid_Search_Task,2020.2.3,Win32,60,,,,,,,,,,,,,,,,,,,,,,,,,,,,,,,,,,,,,,,,,,,,,,,,,,,,,,,,,,,,,,,,,,,,,,,,,,,,,,,0,16,16,15,1,Animals,deer,Stimuli/Animals/deer/deer_16.jpg,,,,,,,,,,,,,,,,,,,,,,,,,,,,,,,,,,,,,,,,,,,,,,,,,,,,,,,,,,,,,,,,,,,,,,,,,,,,,
,,,,,,,,5e4d8eda83dc301d9395adfb,29,M,R,2020-09-10_09h45.35.270,Hybrid_Search_Task,2020.2.3,Win32,60,,,,,,,,,,,,,,,,,,,,,,,,,,,,,,,,,,,,,,,,,,,,,,,,,,,,,,,,,,,,,,,,,,,,,,,,,,,,,,,,,,,,,,,0,8,8,6,1,StimList/deer.xls,,,,,,,,,,,,,,,,,,,,,,,,,,,,,,,,,,,,,,,,,,,,,,,,,,,,,,,,,,,,,,,,,,,,,,,
,,,,,,,,5e4d8eda83dc301d9395adfb,29,M,R,2020-09-10_09h45.35.270,Hybrid_Search_Task,2020.2.3,Win32,60,,,,,,,,,,,,,,,,,,,,,,,,,,,,,,,,,,,,,,,,,,,,,,,,,,,,,,,,,,,,,,,,,,,,,,,,,,,,,,,0,0,0,14,1,Animals,crustacea,Stimuli/Animals/crustacea/crustacea_16.jpg,,,,,,,,,,,,,,,,,,,,,,,,,,,,,,,,,,,,,,,,,,,,,,,,,,,,,,,,,,,,,,,,,,,,,,,,,,,,,
,,,,,,,,5e4d8eda83dc301d9395adfb,29,M,R,2020-09-10_09h45.35.270,Hybrid_Search_Task,2020.2.3,Win32,60,,,,,,,,,,,,,,,,,,,,,,,,,,,,,,,,,,,,,,,,,,,,,,,,,,,,,,,,,,,,,,,,,,,,,,,,,,,,,,,0,1,1,7,1,Animals,crustacea,Stimuli/Animals/crustacea/crustacea_08.jpg,,,,,,,,,,,,,,,,,,,,,,,,,,,,,,,,,,,,,,,,,,,,,,,,,,,,,,,,,,,,,,,,,,,,,,,,,,,,,
,,,,,,,,5e4d8eda83dc301d9395adfb,29,M,R,2020-09-10_09h45.35.270,Hybrid_Search_Task,2020.2.3,Win32,60,,,,,,,,,,,,,,,,,,,,,,,,,,,,,,,,,,,,,,,,,,,,,,,,,,,,,,,,,,,,,,,,,,,,,,,,,,,,,,,0,2,2,2,1,Animals,crustacea,Stimuli/Animals/crustacea/crustacea_03.jpg,,,,,,,,,,,,,,,,,,,,,,,,,,,,,,,,,,,,,,,,,,,,,,,,,,,,,,,,,,,,,,,,,,,,,,,,,,,,,
,,,,,,,,5e4d8eda83dc301d9395adfb,29,M,R,2020-09-10_09h45.35.270,Hybrid_Search_Task,2020.2.3,Win32,60,,,,,,,,,,,,,,,,,,,,,,,,,,,,,,,,,,,,,,,,,,,,,,,,,,,,,,,,,,,,,,,,,,,,,,,,,,,,,,,0,3,3,4,1,Animals,crustacea,Stimuli/Animals/crustacea/crustacea_05.jpg,,,,,,,,,,,,,,,,,,,,,,,,,,,,,,,,,,,,,,,,,,,,,,,,,,,,,,,,,,,,,,,,,,,,,,,,,,,,,
,,,,,,,,5e4d8eda83dc301d9395adfb,29,M,R,2020-09-10_09h45.35.270,Hybrid_Search_Task,2020.2.3,Win32,60,,,,,,,,,,,,,,,,,,,,,,,,,,,,,,,,,,,,,,,,,,,,,,,,,,,,,,,,,,,,,,,,,,,,,,,,,,,,,,,0,4,4,13,1,Animals,crustacea,Stimuli/Animals/crustacea/crustacea_15.jpg,,,,,,,,,,,,,,,,,,,,,,,,,,,,,,,,,,,,,,,,,,,,,,,,,,,,,,,,,,,,,,,,,,,,,,,,,,,,,
,,,,,,,,5e4d8eda83dc301d9395adfb,29,M,R,2020-09-10_09h45.35.270,Hybrid_Search_Task,2020.2.3,Win32,60,,,,,,,,,,,,,,,,,,,,,,,,,,,,,,,,,,,,,,,,,,,,,,,,,,,,,,,,,,,,,,,,,,,,,,,,,,,,,,,0,5,5,12,1,Animals,crustacea,Stimuli/Animals/crustacea/crustacea_14.jpg,,,,,,,,,,,,,,,,,,,,,,,,,,,,,,,,,,,,,,,,,,,,,,,,,,,,,,,,,,,,,,,,,,,,,,,,,,,,,
,,,,,,,,5e4d8eda83dc301d9395adfb,29,M,R,2020-09-10_09h45.35.270,Hybrid_Search_Task,2020.2.3,Win32,60,,,,,,,,,,,,,,,,,,,,,,,,,,,,,,,,,,,,,,,,,,,,,,,,,,,,,,,,,,,,,,,,,,,,,,,,,,,,,,,0,6,6,9,1,Animals,crustacea,Stimuli/Animals/crustacea/crustacea_10.jpg,,,,,,,,,,,,,,,,,,,,,,,,,,,,,,,,,,,,,,,,,,,,,,,,,,,,,,,,,,,,,,,,,,,,,,,,,,,,,
,,,,,,,,5e4d8eda83dc301d9395adfb,29,M,R,2020-09-10_09h45.35.270,Hybrid_Search_Task,2020.2.3,Win32,60,,,,,,,,,,,,,,,,,,,,,,,,,,,,,,,,,,,,,,,,,,,,,,,,,,,,,,,,,,,,,,,,,,,,,,,,,,,,,,,0,7,7,8,1,Animals,crustacea,Stimuli/Animals/crustacea/crustacea_09.jpg,,,,,,,,,,,,,,,,,,,,,,,,,,,,,,,,,,,,,,,,,,,,,,,,,,,,,,,,,,,,,,,,,,,,,,,,,,,,,
,,,,,,,,5e4d8eda83dc301d9395adfb,29,M,R,2020-09-10_09h45.35.270,Hybrid_Search_Task,2020.2.3,Win32,60,,,,,,,,,,,,,,,,,,,,,,,,,,,,,,,,,,,,,,,,,,,,,,,,,,,,,,,,,,,,,,,,,,,,,,,,,,,,,,,0,8,8,5,1,Animals,crustacea,Stimuli/Animals/crustacea/crustacea_06.jpg,,,,,,,,,,,,,,,,,,,,,,,,,,,,,,,,,,,,,,,,,,,,,,,,,,,,,,,,,,,,,,,,,,,,,,,,,,,,,
,,,,,,,,5e4d8eda83dc301d9395adfb,29,M,R,2020-09-10_09h45.35.270,Hybrid_Search_Task,2020.2.3,Win32,60,,,,,,,,,,,,,,,,,,,,,,,,,,,,,,,,,,,,,,,,,,,,,,,,,,,,,,,,,,,,,,,,,,,,,,,,,,,,,,,0,9,9,0,1,Animals,crustacea,Stimuli/Animals/crustacea/crustacea_01.jpg,,,,,,,,,,,,,,,,,,,,,,,,,,,,,,,,,,,,,,,,,,,,,,,,,,,,,,,,,,,,,,,,,,,,,,,,,,,,,
,,,,,,,,5e4d8eda83dc301d9395adfb,29,M,R,2020-09-10_09h45.35.270,Hybrid_Search_Task,2020.2.3,Win32,60,,,,,,,,,,,,,,,,,,,,,,,,,,,,,,,,,,,,,,,,,,,,,,,,,,,,,,,,,,,,,,,,,,,,,,,,,,,,,,,0,10,10,6,1,Animals,crustacea,Stimuli/Animals/crustacea/crustacea_07.jpg,,,,,,,,,,,,,,,,,,,,,,,,,,,,,,,,,,,,,,,,,,,,,,,,,,,,,,,,,,,,,,,,,,,,,,,,,,,,,
,,,,,,,,5e4d8eda83dc301d9395adfb,29,M,R,2020-09-10_09h45.35.270,Hybrid_Search_Task,2020.2.3,Win32,60,,,,,,,,,,,,,,,,,,,,,,,,,,,,,,,,,,,,,,,,,,,,,,,,,,,,,,,,,,,,,,,,,,,,,,,,,,,,,,,0,11,11,10,1,Animals,crustacea,Stimuli/Animals/crustacea/crustacea_12.jpg,,,,,,,,,,,,,,,,,,,,,,,,,,,,,,,,,,,,,,,,,,,,,,,,,,,,,,,,,,,,,,,,,,,,,,,,,,,,,
,,,,,,,,5e4d8eda83dc301d9395adfb,29,M,R,2020-09-10_09h45.35.270,Hybrid_Search_Task,2020.2.3,Win32,60,,,,,,,,,,,,,,,,,,,,,,,,,,,,,,,,,,,,,,,,,,,,,,,,,,,,,,,,,,,,,,,,,,,,,,,,,,,,,,,0,12,12,3,1,Animals,crustacea,Stimuli/Animals/crustacea/crustacea_04.jpg,,,,,,,,,,,,,,,,,,,,,,,,,,,,,,,,,,,,,,,,,,,,,,,,,,,,,,,,,,,,,,,,,,,,,,,,,,,,,
,,,,,,,,5e4d8eda83dc301d9395adfb,29,M,R,2020-09-10_09h45.35.270,Hybrid_Search_Task,2020.2.3,Win32,60,,,,,,,,,,,,,,,,,,,,,,,,,,,,,,,,,,,,,,,,,,,,,,,,,,,,,,,,,,,,,,,,,,,,,,,,,,,,,,,0,13,13,1,1,Animals,crustacea,Stimuli/Animals/crustacea/crustacea_02.jpg,,,,,,,,,,,,,,,,,,,,,,,,,,,,,,,,,,,,,,,,,,,,,,,,,,,,,,,,,,,,,,,,,,,,,,,,,,,,,
,,,,,,,,5e4d8eda83dc301d9395adfb,29,M,R,2020-09-10_09h45.35.270,Hybrid_Search_Task,2020.2.3,Win32,60,,,,,,,,,,,,,,,,,,,,,,,,,,,,,,,,,,,,,,,,,,,,,,,,,,,,,,,,,,,,,,,,,,,,,,,,,,,,,,,0,14,14,15,1,Animals,crustacea,Stimuli/Animals/crustacea/crustacea_17.jpg,,,,,,,,,,,,,,,,,,,,,,,,,,,,,,,,,,,,,,,,,,,,,,,,,,,,,,,,,,,,,,,,,,,,,,,,,,,,,
,,,,,,,,5e4d8eda83dc301d9395adfb,29,M,R,2020-09-10_09h45.35.270,Hybrid_Search_Task,2020.2.3,Win32,60,,,,,,,,,,,,,,,,,,,,,,,,,,,,,,,,,,,,,,,,,,,,,,,,,,,,,,,,,,,,,,,,,,,,,,,,,,,,,,,0,15,15,16,1,Animals,crustacea,Stimuli/Animals/crustacea/crustacea__11.jpg,,,,,,,,,,,,,,,,,,,,,,,,,,,,,,,,,,,,,,,,,,,,,,,,,,,,,,,,,,,,,,,,,,,,,,,,,,,,,
,,,,,,,,5e4d8eda83dc301d9395adfb,29,M,R,2020-09-10_09h45.35.270,Hybrid_Search_Task,2020.2.3,Win32,60,,,,,,,,,,,,,,,,,,,,,,,,,,,,,,,,,,,,,,,,,,,,,,,,,,,,,,,,,,,,,,,,,,,,,,,,,,,,,,,0,16,16,11,1,Animals,crustacea,Stimuli/Animals/crustacea/crustacea_13.jpg,,,,,,,,,,,,,,,,,,,,,,,,,,,,,,,,,,,,,,,,,,,,,,,,,,,,,,,,,,,,,,,,,,,,,,,,,,,,,
,,,,,,,,5e4d8eda83dc301d9395adfb,29,M,R,2020-09-10_09h45.35.270,Hybrid_Search_Task,2020.2.3,Win32,60,,,,,,,,,,,,,,,,,,,,,,,,,,,,,,,,,,,,,,,,,,,,,,,,,,,,,,,,,,,,,,,,,,,,,,,,,,,,,,,,,,,,,,,0,9,9,5,1,StimList/crustacea.xls,,,,,,,,,,,,,,,,,,,,,,,,,,,,,,,,,,,,,,,,,,,,,,,,,,,,,,,,,,,,,,,,,,,,,,,
,,,,,,,,5e4d8eda83dc301d9395adfb,29,M,R,2020-09-10_09h45.35.270,Hybrid_Search_Task,2020.2.3,Win32,60,,,,,,,,,,,,,,,,,,,,,,,,,,,,,,,,,,,,,,,,,,,,,,,,,,,,,,,,,,,,,,,,,,,,,,,,,,,,,,,0,0,0,0,1,Animals,turtle,Stimuli/Animals/turtle/turtle_01.jpg,,,,,,,,,,,,,,,,,,,,,,,,,,,,,,,,,,,,,,,,,,,,,,,,,,,,,,,,,,,,,,,,,,,,,,,,,,,,,
,,,,,,,,5e4d8eda83dc301d9395adfb,29,M,R,2020-09-10_09h45.35.270,Hybrid_Search_Task,2020.2.3,Win32,60,,,,,,,,,,,,,,,,,,,,,,,,,,,,,,,,,,,,,,,,,,,,,,,,,,,,,,,,,,,,,,,,,,,,,,,,,,,,,,,0,1,1,15,1,Animals,turtle,Stimuli/Animals/turtle/turtle_16.jpg,,,,,,,,,,,,,,,,,,,,,,,,,,,,,,,,,,,,,,,,,,,,,,,,,,,,,,,,,,,,,,,,,,,,,,,,,,,,,
,,,,,,,,5e4d8eda83dc301d9395adfb,29,M,R,2020-09-10_09h45.35.270,Hybrid_Search_Task,2020.2.3,Win32,60,,,,,,,,,,,,,,,,,,,,,,,,,,,,,,,,,,,,,,,,,,,,,,,,,,,,,,,,,,,,,,,,,,,,,,,,,,,,,,,0,2,2,3,1,Animals,turtle,Stimuli/Animals/turtle/turtle_04.jpg,,,,,,,,,,,,,,,,,,,,,,,,,,,,,,,,,,,,,,,,,,,,,,,,,,,,,,,,,,,,,,,,,,,,,,,,,,,,,
,,,,,,,,5e4d8eda83dc301d9395adfb,29,M,R,2020-09-10_09h45.35.270,Hybrid_Search_Task,2020.2.3,Win32,60,,,,,,,,,,,,,,,,,,,,,,,,,,,,,,,,,,,,,,,,,,,,,,,,,,,,,,,,,,,,,,,,,,,,,,,,,,,,,,,0,3,3,9,1,Animals,turtle,Stimuli/Animals/turtle/turtle_10.jpg,,,,,,,,,,,,,,,,,,,,,,,,,,,,,,,,,,,,,,,,,,,,,,,,,,,,,,,,,,,,,,,,,,,,,,,,,,,,,
,,,,,,,,5e4d8eda83dc301d9395adfb,29,M,R,2020-09-10_09h45.35.270,Hybrid_Search_Task,2020.2.3,Win32,60,,,,,,,,,,,,,,,,,,,,,,,,,,,,,,,,,,,,,,,,,,,,,,,,,,,,,,,,,,,,,,,,,,,,,,,,,,,,,,,0,4,4,12,1,Animals,turtle,Stimuli/Animals/turtle/turtle_13.jpg,,,,,,,,,,,,,,,,,,,,,,,,,,,,,,,,,,,,,,,,,,,,,,,,,,,,,,,,,,,,,,,,,,,,,,,,,,,,,
,,,,,,,,5e4d8eda83dc301d9395adfb,29,M,R,2020-09-10_09h45.35.270,Hybrid_Search_Task,2020.2.3,Win32,60,,,,,,,,,,,,,,,,,,,,,,,,,,,,,,,,,,,,,,,,,,,,,,,,,,,,,,,,,,,,,,,,,,,,,,,,,,,,,,,0,5,5,11,1,Animals,turtle,Stimuli/Animals/turtle/turtle_12.jpg,,,,,,,,,,,,,,,,,,,,,,,,,,,,,,,,,,,,,,,,,,,,,,,,,,,,,,,,,,,,,,,,,,,,,,,,,,,,,
,,,,,,,,5e4d8eda83dc301d9395adfb,29,M,R,2020-09-10_09h45.35.270,Hybrid_Search_Task,2020.2.3,Win32,60,,,,,,,,,,,,,,,,,,,,,,,,,,,,,,,,,,,,,,,,,,,,,,,,,,,,,,,,,,,,,,,,,,,,,,,,,,,,,,,0,6,6,2,1,Animals,turtle,Stimuli/Animals/turtle/turtle_03.jpg,,,,,,,,,,,,,,,,,,,,,,,,,,,,,,,,,,,,,,,,,,,,,,,,,,,,,,,,,,,,,,,,,,,,,,,,,,,,,
,,,,,,,,5e4d8eda83dc301d9395adfb,29,M,R,2020-09-10_09h45.35.270,Hybrid_Search_Task,2020.2.3,Win32,60,,,,,,,,,,,,,,,,,,,,,,,,,,,,,,,,,,,,,,,,,,,,,,,,,,,,,,,,,,,,,,,,,,,,,,,,,,,,,,,0,7,7,1,1,Animals,turtle,Stimuli/Animals/turtle/turtle_02.jpg,,,,,,,,,,,,,,,,,,,,,,,,,,,,,,,,,,,,,,,,,,,,,,,,,,,,,,,,,,,,,,,,,,,,,,,,,,,,,
,,,,,,,,5e4d8eda83dc301d9395adfb,29,M,R,2020-09-10_09h45.35.270,Hybrid_Search_Task,2020.2.3,Win32,60,,,,,,,,,,,,,,,,,,,,,,,,,,,,,,,,,,,,,,,,,,,,,,,,,,,,,,,,,,,,,,,,,,,,,,,,,,,,,,,0,8,8,10,1,Animals,turtle,Stimuli/Animals/turtle/turtle_11.jpg,,,,,,,,,,,,,,,,,,,,,,,,,,,,,,,,,,,,,,,,,,,,,,,,,,,,,,,,,,,,,,,,,,,,,,,,,,,,,
,,,,,,,,5e4d8eda83dc301d9395adfb,29,M,R,2020-09-10_09h45.35.270,Hybrid_Search_Task,2020.2.3,Win32,60,,,,,,,,,,,,,,,,,,,,,,,,,,,,,,,,,,,,,,,,,,,,,,,,,,,,,,,,,,,,,,,,,,,,,,,,,,,,,,,0,9,9,16,1,Animals,turtle,Stimuli/Animals/turtle/turtle_17.jpg,,,,,,,,,,,,,,,,,,,,,,,,,,,,,,,,,,,,,,,,,,,,,,,,,,,,,,,,,,,,,,,,,,,,,,,,,,,,,
,,,,,,,,5e4d8eda83dc301d9395adfb,29,M,R,2020-09-10_09h45.35.270,Hybrid_Search_Task,2020.2.3,Win32,60,,,,,,,,,,,,,,,,,,,,,,,,,,,,,,,,,,,,,,,,,,,,,,,,,,,,,,,,,,,,,,,,,,,,,,,,,,,,,,,0,10,10,6,1,Animals,turtle,Stimuli/Animals/turtle/turtle_07.jpg,,,,,,,,,,,,,,,,,,,,,,,,,,,,,,,,,,,,,,,,,,,,,,,,,,,,,,,,,,,,,,,,,,,,,,,,,,,,,
,,,,,,,,5e4d8eda83dc301d9395adfb,29,M,R,2020-09-10_09h45.35.270,Hybrid_Search_Task,2020.2.3,Win32,60,,,,,,,,,,,,,,,,,,,,,,,,,,,,,,,,,,,,,,,,,,,,,,,,,,,,,,,,,,,,,,,,,,,,,,,,,,,,,,,0,11,11,7,1,Animals,turtle,Stimuli/Animals/turtle/turtle_08.jpg,,,,,,,,,,,,,,,,,,,,,,,,,,,,,,,,,,,,,,,,,,,,,,,,,,,,,,,,,,,,,,,,,,,,,,,,,,,,,
,,,,,,,,5e4d8eda83dc301d9395adfb,29,M,R,2020-09-10_09h45.35.270,Hybrid_Search_Task,2020.2.3,Win32,60,,,,,,,,,,,,,,,,,,,,,,,,,,,,,,,,,,,,,,,,,,,,,,,,,,,,,,,,,,,,,,,,,,,,,,,,,,,,,,,0,12,12,14,1,Animals,turtle,Stimuli/Animals/turtle/turtle_15.jpg,,,,,,,,,,,,,,,,,,,,,,,,,,,,,,,,,,,,,,,,,,,,,,,,,,,,,,,,,,,,,,,,,,,,,,,,,,,,,
,,,,,,,,5e4d8eda83dc301d9395adfb,29,M,R,2020-09-10_09h45.35.270,Hybrid_Search_Task,2020.2.3,Win32,60,,,,,,,,,,,,,,,,,,,,,,,,,,,,,,,,,,,,,,,,,,,,,,,,,,,,,,,,,,,,,,,,,,,,,,,,,,,,,,,0,13,13,5,1,Animals,turtle,Stimuli/Animals/turtle/turtle_06.jpg,,,,,,,,,,,,,,,,,,,,,,,,,,,,,,,,,,,,,,,,,,,,,,,,,,,,,,,,,,,,,,,,,,,,,,,,,,,,,
,,,,,,,,5e4d8eda83dc301d9395adfb,29,M,R,2020-09-10_09h45.35.270,Hybrid_Search_Task,2020.2.3,Win32,60,,,,,,,,,,,,,,,,,,,,,,,,,,,,,,,,,,,,,,,,,,,,,,,,,,,,,,,,,,,,,,,,,,,,,,,,,,,,,,,0,14,14,13,1,Animals,turtle,Stimuli/Animals/turtle/turtle_14.jpg,,,,,,,,,,,,,,,,,,,,,,,,,,,,,,,,,,,,,,,,,,,,,,,,,,,,,,,,,,,,,,,,,,,,,,,,,,,,,
,,,,,,,,5e4d8eda83dc301d9395adfb,29,M,R,2020-09-10_09h45.35.270,Hybrid_Search_Task,2020.2.3,Win32,60,,,,,,,,,,,,,,,,,,,,,,,,,,,,,,,,,,,,,,,,,,,,,,,,,,,,,,,,,,,,,,,,,,,,,,,,,,,,,,,0,15,15,8,1,Animals,turtle,Stimuli/Animals/turtle/turtle_09.jpg,,,,,,,,,,,,,,,,,,,,,,,,,,,,,,,,,,,,,,,,,,,,,,,,,,,,,,,,,,,,,,,,,,,,,,,,,,,,,
,,,,,,,,5e4d8eda83dc301d9395adfb,29,M,R,2020-09-10_09h45.35.270,Hybrid_Search_Task,2020.2.3,Win32,60,,,,,,,,,,,,,,,,,,,,,,,,,,,,,,,,,,,,,,,,,,,,,,,,,,,,,,,,,,,,,,,,,,,,,,,,,,,,,,,0,16,16,4,1,Animals,turtle,Stimuli/Animals/turtle/turtle_05.jpg,,,,,,,,,,,,,,,,,,,,,,,,,,,,,,,,,,,,,,,,,,,,,,,,,,,,,,,,,,,,,,,,,,,,,,,,,,,,,
,,,,,,,,5e4d8eda83dc301d9395adfb,29,M,R,2020-09-10_09h45.35.270,Hybrid_Search_Task,2020.2.3,Win32,60,,,,,,,,,,,,,,,,,,,,,,,,,,,,,,,,,,,,,,,,,,,,,,,,,,,,,,,,,,,,,,,,,,,,,,,,,,,,,,,,,,,,,,,0,10,10,28,1,StimList/turtle.xls,,,,,,,,,,,,,,,,,,,,,,,,,,,,,,,,,,,,,,,,,,,,,,,,,,,,,,,,,,,,,,,,,,,,,,,
,,,,,,,,5e4d8eda83dc301d9395adfb,29,M,R,2020-09-10_09h45.35.270,Hybrid_Search_Task,2020.2.3,Win32,60,,,,,,,,,,,,,,,,,,,,,,,,,,,,,,,,,,,,,,,,,,,,,,,,,,,,,,,,,,,,,,,,,,,,,,,,,,,,,,,0,0,0,6,1,Animals,rat,Stimuli/Animals/rat/rat_07.jpg,,,,,,,,,,,,,,,,,,,,,,,,,,,,,,,,,,,,,,,,,,,,,,,,,,,,,,,,,,,,,,,,,,,,,,,,,,,,,
,,,,,,,,5e4d8eda83dc301d9395adfb,29,M,R,2020-09-10_09h45.35.270,Hybrid_Search_Task,2020.2.3,Win32,60,,,,,,,,,,,,,,,,,,,,,,,,,,,,,,,,,,,,,,,,,,,,,,,,,,,,,,,,,,,,,,,,,,,,,,,,,,,,,,,0,1,1,8,1,Animals,rat,Stimuli/Animals/rat/rat_09.jpg,,,,,,,,,,,,,,,,,,,,,,,,,,,,,,,,,,,,,,,,,,,,,,,,,,,,,,,,,,,,,,,,,,,,,,,,,,,,,
,,,,,,,,5e4d8eda83dc301d9395adfb,29,M,R,2020-09-10_09h45.35.270,Hybrid_Search_Task,2020.2.3,Win32,60,,,,,,,,,,,,,,,,,,,,,,,,,,,,,,,,,,,,,,,,,,,,,,,,,,,,,,,,,,,,,,,,,,,,,,,,,,,,,,,0,2,2,3,1,Animals,rat,Stimuli/Animals/rat/rat_04.jpg,,,,,,,,,,,,,,,,,,,,,,,,,,,,,,,,,,,,,,,,,,,,,,,,,,,,,,,,,,,,,,,,,,,,,,,,,,,,,
,,,,,,,,5e4d8eda83dc301d9395adfb,29,M,R,2020-09-10_09h45.35.270,Hybrid_Search_Task,2020.2.3,Win32,60,,,,,,,,,,,,,,,,,,,,,,,,,,,,,,,,,,,,,,,,,,,,,,,,,,,,,,,,,,,,,,,,,,,,,,,,,,,,,,,0,3,3,11,1,Animals,rat,Stimuli/Animals/rat/rat_12.jpg,,,,,,,,,,,,,,,,,,,,,,,,,,,,,,,,,,,,,,,,,,,,,,,,,,,,,,,,,,,,,,,,,,,,,,,,,,,,,
,,,,,,,,5e4d8eda83dc301d9395adfb,29,M,R,2020-09-10_09h45.35.270,Hybrid_Search_Task,2020.2.3,Win32,60,,,,,,,,,,,,,,,,,,,,,,,,,,,,,,,,,,,,,,,,,,,,,,,,,,,,,,,,,,,,,,,,,,,,,,,,,,,,,,,0,4,4,7,1,Animals,rat,Stimuli/Animals/rat/rat_08.jpg,,,,,,,,,,,,,,,,,,,,,,,,,,,,,,,,,,,,,,,,,,,,,,,,,,,,,,,,,,,,,,,,,,,,,,,,,,,,,
,,,,,,,,5e4d8eda83dc301d9395adfb,29,M,R,2020-09-10_09h45.35.270,Hybrid_Search_Task,2020.2.3,Win32,60,,,,,,,,,,,,,,,,,,,,,,,,,,,,,,,,,,,,,,,,,,,,,,,,,,,,,,,,,,,,,,,,,,,,,,,,,,,,,,,0,5,5,12,1,Animals,rat,Stimuli/Animals/rat/rat_13.jpg,,,,,,,,,,,,,,,,,,,,,,,,,,,,,,,,,,,,,,,,,,,,,,,,,,,,,,,,,,,,,,,,,,,,,,,,,,,,,
,,,,,,,,5e4d8eda83dc301d9395adfb,29,M,R,2020-09-10_09h45.35.270,Hybrid_Search_Task,2020.2.3,Win32,60,,,,,,,,,,,,,,,,,,,,,,,,,,,,,,,,,,,,,,,,,,,,,,,,,,,,,,,,,,,,,,,,,,,,,,,,,,,,,,,0,6,6,5,1,Animals,rat,Stimuli/Animals/rat/rat_06.jpg,,,,,,,,,,,,,,,,,,,,,,,,,,,,,,,,,,,,,,,,,,,,,,,,,,,,,,,,,,,,,,,,,,,,,,,,,,,,,
,,,,,,,,5e4d8eda83dc301d9395adfb,29,M,R,2020-09-10_09h45.35.270,Hybrid_Search_Task,2020.2.3,Win32,60,,,,,,,,,,,,,,,,,,,,,,,,,,,,,,,,,,,,,,,,,,,,,,,,,,,,,,,,,,,,,,,,,,,,,,,,,,,,,,,0,7,7,10,1,Animals,rat,Stimuli/Animals/rat/rat_11.jpg,,,,,,,,,,,,,,,,,,,,,,,,,,,,,,,,,,,,,,,,,,,,,,,,,,,,,,,,,,,,,,,,,,,,,,,,,,,,,
,,,,,,,,5e4d8eda83dc301d9395adfb,29,M,R,2020-09-10_09h45.35.270,Hybrid_Search_Task,2020.2.3,Win32,60,,,,,,,,,,,,,,,,,,,,,,,,,,,,,,,,,,,,,,,,,,,,,,,,,,,,,,,,,,,,,,,,,,,,,,,,,,,,,,,0,8,8,9,1,Animals,rat,Stimuli/Animals/rat/rat_10.jpg,,,,,,,,,,,,,,,,,,,,,,,,,,,,,,,,,,,,,,,,,,,,,,,,,,,,,,,,,,,,,,,,,,,,,,,,,,,,,
,,,,,,,,5e4d8eda83dc301d9395adfb,29,M,R,2020-09-10_09h45.35.270,Hybrid_Search_Task,2020.2.3,Win32,60,,,,,,,,,,,,,,,,,,,,,,,,,,,,,,,,,,,,,,,,,,,,,,,,,,,,,,,,,,,,,,,,,,,,,,,,,,,,,,,0,9,9,4,1,Animals,rat,Stimuli/Animals/rat/rat_05.jpg,,,,,,,,,,,,,,,,,,,,,,,,,,,,,,,,,,,,,,,,,,,,,,,,,,,,,,,,,,,,,,,,,,,,,,,,,,,,,
,,,,,,,,5e4d8eda83dc301d9395adfb,29,M,R,2020-09-10_09h45.35.270,Hybrid_Search_Task,2020.2.3,Win32,60,,,,,,,,,,,,,,,,,,,,,,,,,,,,,,,,,,,,,,,,,,,,,,,,,,,,,,,,,,,,,,,,,,,,,,,,,,,,,,,0,10,10,2,1,Animals,rat,Stimuli/Animals/rat/rat_03.jpg,,,,,,,,,,,,,,,,,,,,,,,,,,,,,,,,,,,,,,,,,,,,,,,,,,,,,,,,,,,,,,,,,,,,,,,,,,,,,
,,,,,,,,5e4d8eda83dc301d9395adfb,29,M,R,2020-09-10_09h45.35.270,Hybrid_Search_Task,2020.2.3,Win32,60,,,,,,,,,,,,,,,,,,,,,,,,,,,,,,,,,,,,,,,,,,,,,,,,,,,,,,,,,,,,,,,,,,,,,,,,,,,,,,,0,11,11,0,1,Animals,rat,Stimuli/Animals/rat/rat_01.jpg,,,,,,,,,,,,,,,,,,,,,,,,,,,,,,,,,,,,,,,,,,,,,,,,,,,,,,,,,,,,,,,,,,,,,,,,,,,,,
,,,,,,,,5e4d8eda83dc301d9395adfb,29,M,R,2020-09-10_09h45.35.270,Hybrid_Search_Task,2020.2.3,Win32,60,,,,,,,,,,,,,,,,,,,,,,,,,,,,,,,,,,,,,,,,,,,,,,,,,,,,,,,,,,,,,,,,,,,,,,,,,,,,,,,0,12,12,13,1,Animals,rat,Stimuli/Animals/rat/rat_14.jpg,,,,,,,,,,,,,,,,,,,,,,,,,,,,,,,,,,,,,,,,,,,,,,,,,,,,,,,,,,,,,,,,,,,,,,,,,,,,,
,,,,,,,,5e4d8eda83dc301d9395adfb,29,M,R,2020-09-10_09h45.35.270,Hybrid_Search_Task,2020.2.3,Win32,60,,,,,,,,,,,,,,,,,,,,,,,,,,,,,,,,,,,,,,,,,,,,,,,,,,,,,,,,,,,,,,,,,,,,,,,,,,,,,,,0,13,13,1,1,Animals,rat,Stimuli/Animals/rat/rat_02.jpg,,,,,,,,,,,,,,,,,,,,,,,,,,,,,,,,,,,,,,,,,,,,,,,,,,,,,,,,,,,,,,,,,,,,,,,,,,,,,
,,,,,,,,5e4d8eda83dc301d9395adfb,29,M,R,2020-09-10_09h45.35.270,Hybrid_Search_Task,2020.2.3,Win32,60,,,,,,,,,,,,,,,,,,,,,,,,,,,,,,,,,,,,,,,,,,,,,,,,,,,,,,,,,,,,,,,,,,,,,,,,,,,,,,,0,14,14,15,1,Animals,rat,Stimuli/Animals/rat/rat_16.jpg,,,,,,,,,,,,,,,,,,,,,,,,,,,,,,,,,,,,,,,,,,,,,,,,,,,,,,,,,,,,,,,,,,,,,,,,,,,,,
,,,,,,,,5e4d8eda83dc301d9395adfb,29,M,R,2020-09-10_09h45.35.270,Hybrid_Search_Task,2020.2.3,Win32,60,,,,,,,,,,,,,,,,,,,,,,,,,,,,,,,,,,,,,,,,,,,,,,,,,,,,,,,,,,,,,,,,,,,,,,,,,,,,,,,0,15,15,14,1,Animals,rat,Stimuli/Animals/rat/rat_15.jpg,,,,,,,,,,,,,,,,,,,,,,,,,,,,,,,,,,,,,,,,,,,,,,,,,,,,,,,,,,,,,,,,,,,,,,,,,,,,,
,,,,,,,,5e4d8eda83dc301d9395adfb,29,M,R,2020-09-10_09h45.35.270,Hybrid_Search_Task,2020.2.3,Win32,60,,,,,,,,,,,,,,,,,,,,,,,,,,,,,,,,,,,,,,,,,,,,,,,,,,,,,,,,,,,,,,,,,,,,,,,,,,,,,,,0,16,16,16,1,Animals,rat,Stimuli/Animals/rat/rat_17.jpg,,,,,,,,,,,,,,,,,,,,,,,,,,,,,,,,,,,,,,,,,,,,,,,,,,,,,,,,,,,,,,,,,,,,,,,,,,,,,
,,,,,,,,5e4d8eda83dc301d9395adfb,29,M,R,2020-09-10_09h45.35.270,Hybrid_Search_Task,2020.2.3,Win32,60,,,,,,,,,,,,,,,,,,,,,,,,,,,,,,,,,,,,,,,,,,,,,,,,,,,,,,,,,,,,,,,,,,,,,,,,,,,,,,,,,,,,,,,0,11,11,22,1,StimList/rat.xls,,,,,,,,,,,,,,,,,,,,,,,,,,,,,,,,,,,,,,,,,,,,,,,,,,,,,,,,,,,,,,,,,,,,,,,
,,,,,,,,5e4d8eda83dc301d9395adfb,29,M,R,2020-09-10_09h45.35.270,Hybrid_Search_Task,2020.2.3,Win32,60,,,,,,,,,,,,,,,,,,,,,,,,,,,,,,,,,,,,,,,,,,,,,,,,,,,,,,,,,,,,,,,,,,,,,,,,,,,,,,,0,0,0,1,1,Animals,rabbit,Stimuli/Animals/rabbit/rabbit_02.jpg,,,,,,,,,,,,,,,,,,,,,,,,,,,,,,,,,,,,,,,,,,,,,,,,,,,,,,,,,,,,,,,,,,,,,,,,,,,,,
,,,,,,,,5e4d8eda83dc301d9395adfb,29,M,R,2020-09-10_09h45.35.270,Hybrid_Search_Task,2020.2.3,Win32,60,,,,,,,,,,,,,,,,,,,,,,,,,,,,,,,,,,,,,,,,,,,,,,,,,,,,,,,,,,,,,,,,,,,,,,,,,,,,,,,0,1,1,4,1,Animals,rabbit,Stimuli/Animals/rabbit/rabbit_05.jpg,,,,,,,,,,,,,,,,,,,,,,,,,,,,,,,,,,,,,,,,,,,,,,,,,,,,,,,,,,,,,,,,,,,,,,,,,,,,,
,,,,,,,,5e4d8eda83dc301d9395adfb,29,M,R,2020-09-10_09h45.35.270,Hybrid_Search_Task,2020.2.3,Win32,60,,,,,,,,,,,,,,,,,,,,,,,,,,,,,,,,,,,,,,,,,,,,,,,,,,,,,,,,,,,,,,,,,,,,,,,,,,,,,,,0,2,2,0,1,Animals,rabbit,Stimuli/Animals/rabbit/rabbit_01.jpg,,,,,,,,,,,,,,,,,,,,,,,,,,,,,,,,,,,,,,,,,,,,,,,,,,,,,,,,,,,,,,,,,,,,,,,,,,,,,
,,,,,,,,5e4d8eda83dc301d9395adfb,29,M,R,2020-09-10_09h45.35.270,Hybrid_Search_Task,2020.2.3,Win32,60,,,,,,,,,,,,,,,,,,,,,,,,,,,,,,,,,,,,,,,,,,,,,,,,,,,,,,,,,,,,,,,,,,,,,,,,,,,,,,,0,3,3,15,1,Animals,rabbit,Stimuli/Animals/rabbit/rabbit_16.jpg,,,,,,,,,,,,,,,,,,,,,,,,,,,,,,,,,,,,,,,,,,,,,,,,,,,,,,,,,,,,,,,,,,,,,,,,,,,,,
,,,,,,,,5e4d8eda83dc301d9395adfb,29,M,R,2020-09-10_09h45.35.270,Hybrid_Search_Task,2020.2.3,Win32,60,,,,,,,,,,,,,,,,,,,,,,,,,,,,,,,,,,,,,,,,,,,,,,,,,,,,,,,,,,,,,,,,,,,,,,,,,,,,,,,0,4,4,11,1,Animals,rabbit,Stimuli/Animals/rabbit/rabbit_12.jpg,,,,,,,,,,,,,,,,,,,,,,,,,,,,,,,,,,,,,,,,,,,,,,,,,,,,,,,,,,,,,,,,,,,,,,,,,,,,,
,,,,,,,,5e4d8eda83dc301d9395adfb,29,M,R,2020-09-10_09h45.35.270,Hybrid_Search_Task,2020.2.3,Win32,60,,,,,,,,,,,,,,,,,,,,,,,,,,,,,,,,,,,,,,,,,,,,,,,,,,,,,,,,,,,,,,,,,,,,,,,,,,,,,,,0,5,5,13,1,Animals,rabbit,Stimuli/Animals/rabbit/rabbit_14.jpg,,,,,,,,,,,,,,,,,,,,,,,,,,,,,,,,,,,,,,,,,,,,,,,,,,,,,,,,,,,,,,,,,,,,,,,,,,,,,
,,,,,,,,5e4d8eda83dc301d9395adfb,29,M,R,2020-09-10_09h45.35.270,Hybrid_Search_Task,2020.2.3,Win32,60,,,,,,,,,,,,,,,,,,,,,,,,,,,,,,,,,,,,,,,,,,,,,,,,,,,,,,,,,,,,,,,,,,,,,,,,,,,,,,,0,6,6,6,1,Animals,rabbit,Stimuli/Animals/rabbit/rabbit_07.jpg,,,,,,,,,,,,,,,,,,,,,,,,,,,,,,,,,,,,,,,,,,,,,,,,,,,,,,,,,,,,,,,,,,,,,,,,,,,,,
,,,,,,,,5e4d8eda83dc301d9395adfb,29,M,R,2020-09-10_09h45.35.270,Hybrid_Search_Task,2020.2.3,Win32,60,,,,,,,,,,,,,,,,,,,,,,,,,,,,,,,,,,,,,,,,,,,,,,,,,,,,,,,,,,,,,,,,,,,,,,,,,,,,,,,0,7,7,16,1,Animals,rabbit,Stimuli/Animals/rabbit/rabbit_17.jpg,,,,,,,,,,,,,,,,,,,,,,,,,,,,,,,,,,,,,,,,,,,,,,,,,,,,,,,,,,,,,,,,,,,,,,,,,,,,,
,,,,,,,,5e4d8eda83dc301d9395adfb,29,M,R,2020-09-10_09h45.35.270,Hybrid_Search_Task,2020.2.3,Win32,60,,,,,,,,,,,,,,,,,,,,,,,,,,,,,,,,,,,,,,,,,,,,,,,,,,,,,,,,,,,,,,,,,,,,,,,,,,,,,,,0,8,8,2,1,Animals,rabbit,Stimuli/Animals/rabbit/rabbit_03.jpg,,,,,,,,,,,,,,,,,,,,,,,,,,,,,,,,,,,,,,,,,,,,,,,,,,,,,,,,,,,,,,,,,,,,,,,,,,,,,
,,,,,,,,5e4d8eda83dc301d9395adfb,29,M,R,2020-09-10_09h45.35.270,Hybrid_Search_Task,2020.2.3,Win32,60,,,,,,,,,,,,,,,,,,,,,,,,,,,,,,,,,,,,,,,,,,,,,,,,,,,,,,,,,,,,,,,,,,,,,,,,,,,,,,,0,9,9,9,1,Animals,rabbit,Stimuli/Animals/rabbit/rabbit_10.jpg,,,,,,,,,,,,,,,,,,,,,,,,,,,,,,,,,,,,,,,,,,,,,,,,,,,,,,,,,,,,,,,,,,,,,,,,,,,,,
,,,,,,,,5e4d8eda83dc301d9395adfb,29,M,R,2020-09-10_09h45.35.270,Hybrid_Search_Task,2020.2.3,Win32,60,,,,,,,,,,,,,,,,,,,,,,,,,,,,,,,,,,,,,,,,,,,,,,,,,,,,,,,,,,,,,,,,,,,,,,,,,,,,,,,0,10,10,7,1,Animals,rabbit,Stimuli/Animals/rabbit/rabbit_08.jpg,,,,,,,,,,,,,,,,,,,,,,,,,,,,,,,,,,,,,,,,,,,,,,,,,,,,,,,,,,,,,,,,,,,,,,,,,,,,,
,,,,,,,,5e4d8eda83dc301d9395adfb,29,M,R,2020-09-10_09h45.35.270,Hybrid_Search_Task,2020.2.3,Win32,60,,,,,,,,,,,,,,,,,,,,,,,,,,,,,,,,,,,,,,,,,,,,,,,,,,,,,,,,,,,,,,,,,,,,,,,,,,,,,,,0,11,11,12,1,Animals,rabbit,Stimuli/Animals/rabbit/rabbit_13.jpg,,,,,,,,,,,,,,,,,,,,,,,,,,,,,,,,,,,,,,,,,,,,,,,,,,,,,,,,,,,,,,,,,,,,,,,,,,,,,
,,,,,,,,5e4d8eda83dc301d9395adfb,29,M,R,2020-09-10_09h45.35.270,Hybrid_Search_Task,2020.2.3,Win32,60,,,,,,,,,,,,,,,,,,,,,,,,,,,,,,,,,,,,,,,,,,,,,,,,,,,,,,,,,,,,,,,,,,,,,,,,,,,,,,,0,12,12,3,1,Animals,rabbit,Stimuli/Animals/rabbit/rabbit_04.jpg,,,,,,,,,,,,,,,,,,,,,,,,,,,,,,,,,,,,,,,,,,,,,,,,,,,,,,,,,,,,,,,,,,,,,,,,,,,,,
,,,,,,,,5e4d8eda83dc301d9395adfb,29,M,R,2020-09-10_09h45.35.270,Hybrid_Search_Task,2020.2.3,Win32,60,,,,,,,,,,,,,,,,,,,,,,,,,,,,,,,,,,,,,,,,,,,,,,,,,,,,,,,,,,,,,,,,,,,,,,,,,,,,,,,0,13,13,14,1,Animals,rabbit,Stimuli/Animals/rabbit/rabbit_15.jpg,,,,,,,,,,,,,,,,,,,,,,,,,,,,,,,,,,,,,,,,,,,,,,,,,,,,,,,,,,,,,,,,,,,,,,,,,,,,,
,,,,,,,,5e4d8eda83dc301d9395adfb,29,M,R,2020-09-10_09h45.35.270,Hybrid_Search_Task,2020.2.3,Win32,60,,,,,,,,,,,,,,,,,,,,,,,,,,,,,,,,,,,,,,,,,,,,,,,,,,,,,,,,,,,,,,,,,,,,,,,,,,,,,,,0,14,14,5,1,Animals,rabbit,Stimuli/Animals/rabbit/rabbit_06.jpg,,,,,,,,,,,,,,,,,,,,,,,,,,,,,,,,,,,,,,,,,,,,,,,,,,,,,,,,,,,,,,,,,,,,,,,,,,,,,
,,,,,,,,5e4d8eda83dc301d9395adfb,29,M,R,2020-09-10_09h45.35.270,Hybrid_Search_Task,2020.2.3,Win32,60,,,,,,,,,,,,,,,,,,,,,,,,,,,,,,,,,,,,,,,,,,,,,,,,,,,,,,,,,,,,,,,,,,,,,,,,,,,,,,,0,15,15,8,1,Animals,rabbit,Stimuli/Animals/rabbit/rabbit_09.jpg,,,,,,,,,,,,,,,,,,,,,,,,,,,,,,,,,,,,,,,,,,,,,,,,,,,,,,,,,,,,,,,,,,,,,,,,,,,,,
,,,,,,,,5e4d8eda83dc301d9395adfb,29,M,R,2020-09-10_09h45.35.270,Hybrid_Search_Task,2020.2.3,Win32,60,,,,,,,,,,,,,,,,,,,,,,,,,,,,,,,,,,,,,,,,,,,,,,,,,,,,,,,,,,,,,,,,,,,,,,,,,,,,,,,0,16,16,10,1,Animals,rabbit,Stimuli/Animals/rabbit/rabbit_11.jpg,,,,,,,,,,,,,,,,,,,,,,,,,,,,,,,,,,,,,,,,,,,,,,,,,,,,,,,,,,,,,,,,,,,,,,,,,,,,,
,,,,,,,,5e4d8eda83dc301d9395adfb,29,M,R,2020-09-10_09h45.35.270,Hybrid_Search_Task,2020.2.3,Win32,60,,,,,,,,,,,,,,,,,,,,,,,,,,,,,,,,,,,,,,,,,,,,,,,,,,,,,,,,,,,,,,,,,,,,,,,,,,,,,,,,,,,,,,,0,12,12,21,1,StimList/rabbit.xls,,,,,,,,,,,,,,,,,,,,,,,,,,,,,,,,,,,,,,,,,,,,,,,,,,,,,,,,,,,,,,,,,,,,,,,
,,,,,,,,5e4d8eda83dc301d9395adfb,29,M,R,2020-09-10_09h45.35.270,Hybrid_Search_Task,2020.2.3,Win32,60,,,,,,,,,,,,,,,,,,,,,,,,,,,,,,,,,,,,,,,,,,,,,,,,,,,,,,,,,,,,,,,,,,,,,,,,,,,,,,,0,0,0,1,1,Animals,mustelidae,Stimuli/Animals/mustelidae/mustelidae_02.jpg,,,,,,,,,,,,,,,,,,,,,,,,,,,,,,,,,,,,,,,,,,,,,,,,,,,,,,,,,,,,,,,,,,,,,,,,,,,,,
,,,,,,,,5e4d8eda83dc301d9395adfb,29,M,R,2020-09-10_09h45.35.270,Hybrid_Search_Task,2020.2.3,Win32,60,,,,,,,,,,,,,,,,,,,,,,,,,,,,,,,,,,,,,,,,,,,,,,,,,,,,,,,,,,,,,,,,,,,,,,,,,,,,,,,0,1,1,6,1,Animals,mustelidae,Stimuli/Animals/mustelidae/mustelidae_07.jpg,,,,,,,,,,,,,,,,,,,,,,,,,,,,,,,,,,,,,,,,,,,,,,,,,,,,,,,,,,,,,,,,,,,,,,,,,,,,,
,,,,,,,,5e4d8eda83dc301d9395adfb,29,M,R,2020-09-10_09h45.35.270,Hybrid_Search_Task,2020.2.3,Win32,60,,,,,,,,,,,,,,,,,,,,,,,,,,,,,,,,,,,,,,,,,,,,,,,,,,,,,,,,,,,,,,,,,,,,,,,,,,,,,,,0,2,2,4,1,Animals,mustelidae,Stimuli/Animals/mustelidae/mustelidae_05.jpg,,,,,,,,,,,,,,,,,,,,,,,,,,,,,,,,,,,,,,,,,,,,,,,,,,,,,,,,,,,,,,,,,,,,,,,,,,,,,
,,,,,,,,5e4d8eda83dc301d9395adfb,29,M,R,2020-09-10_09h45.35.270,Hybrid_Search_Task,2020.2.3,Win32,60,,,,,,,,,,,,,,,,,,,,,,,,,,,,,,,,,,,,,,,,,,,,,,,,,,,,,,,,,,,,,,,,,,,,,,,,,,,,,,,0,3,3,16,1,Animals,mustelidae,Stimuli/Animals/mustelidae/mustelidae_17.jpg,,,,,,,,,,,,,,,,,,,,,,,,,,,,,,,,,,,,,,,,,,,,,,,,,,,,,,,,,,,,,,,,,,,,,,,,,,,,,
,,,,,,,,5e4d8eda83dc301d9395adfb,29,M,R,2020-09-10_09h45.35.270,Hybrid_Search_Task,2020.2.3,Win32,60,,,,,,,,,,,,,,,,,,,,,,,,,,,,,,,,,,,,,,,,,,,,,,,,,,,,,,,,,,,,,,,,,,,,,,,,,,,,,,,0,4,4,9,1,Animals,mustelidae,Stimuli/Animals/mustelidae/mustelidae_10.jpg,,,,,,,,,,,,,,,,,,,,,,,,,,,,,,,,,,,,,,,,,,,,,,,,,,,,,,,,,,,,,,,,,,,,,,,,,,,,,
,,,,,,,,5e4d8eda83dc301d9395adfb,29,M,R,2020-09-10_09h45.35.270,Hybrid_Search_Task,2020.2.3,Win32,60,,,,,,,,,,,,,,,,,,,,,,,,,,,,,,,,,,,,,,,,,,,,,,,,,,,,,,,,,,,,,,,,,,,,,,,,,,,,,,,0,5,5,11,1,Animals,mustelidae,Stimuli/Animals/mustelidae/mustelidae_12.jpg,,,,,,,,,,,,,,,,,,,,,,,,,,,,,,,,,,,,,,,,,,,,,,,,,,,,,,,,,,,,,,,,,,,,,,,,,,,,,
