instrResp1.keys,instrResp1.rt,instr1_loop.thisRepN,instr1_loop.thisTrialN,instr1_loop.thisN,instr1_loop.thisIndex,instr1_loop.ran,instrOrd1,participant,age,gender,handedness,date,expName,psychopyVersion,OS,frameRate,instrResp5.keys,instrResp5.rt,instrResp6.keys,instrResp6.rt,instrResp3.keys,instrResp3.rt,instr2_loop.thisRepN,instr2_loop.thisTrialN,instr2_loop.thisN,instr2_loop.thisIndex,instr2_loop.ran,instrOrd2,instrEGresp.keys,instrEGresp.rt,instrHint2Resp.keys,instrHint2Resp.rt,instrRespSCH.keys,instr3_loop.thisRepN,instr3_loop.thisTrialN,instr3_loop.thisN,instr3_loop.thisIndex,instr3_loop.ran,instrOrd3,instrHint3Resp.keys,instrHint3Resp.rt,instrResp10.keys,instrResp10.rt,pStudy_loop.thisRepN,pStudy_loop.thisTrialN,pStudy_loop.thisN,pStudy_loop.thisIndex,pStudy_loop.ran,pTarg,psPresen_loop.thisRepN,psPresen_loop.thisTrialN,psPresen_loop.thisN,psPresen_loop.thisIndex,psPresen_loop.ran,ptHint_loop.thisRepN,ptHint_loop.thisTrialN,ptHint_loop.thisN,ptHint_loop.thisIndex,ptHint_loop.ran,pTestResp.keys,pTestResp.corr,pTestResp.rt,pTest_loop.thisRepN,pTest_loop.thisTrialN,pTest_loop.thisN,pTest_loop.thisIndex,pTest_loop.ran,ptStim,pCorAns,pTBR_loop.thisRepN,pTBR_loop.thisTrialN,pTBR_loop.thisN,pTBR_loop.thisIndex,pTBR_loop.ran,psResp.keys,psResp.corr,pSearch_loop.thisRepN,pSearch_loop.thisTrialN,pSearch_loop.thisN,pSearch_loop.thisIndex,pSearch_loop.ran,pStim,psResp.rt,practice_loop.thisRepN,practice_loop.thisTrialN,practice_loop.thisN,practice_loop.thisIndex,practice_loop.ran,pStudyOrd,pTest1,pTest2,pTest3,pSearch,expStaResp.keys,expStaResp.rt,stim17_loop.thisRepN,stim17_loop.thisTrialN,stim17_loop.thisN,stim17_loop.thisIndex,stim17_loop.ran,cate,subCate,stimulus,sub30_loop.thisRepN,sub30_loop.thisTrialN,sub30_loop.thisN,sub30_loop.thisIndex,sub30_loop.ran,stimSubCate,altDistrStim_loop.thisRepN,altDistrStim_loop.thisTrialN,altDistrStim_loop.thisN,altDistrStim_loop.thisIndex,altDistrStim_loop.ran,distr_loop.thisRepN,distr_loop.thisTrialN,distr_loop.thisN,distr_loop.thisIndex,distr_loop.ran,chooseDistr_loop.thisRepN,chooseDistr_loop.thisTrialN,chooseDistr_loop.thisN,chooseDistr_loop.thisIndex,chooseDistr_loop.ran,distrIndx,study_loop.thisRepN,study_loop.thisTrialN,study_loop.thisN,study_loop.thisIndex,study_loop.ran,study_presen.thisRepN,study_presen.thisTrialN,study_presen.thisN,study_presen.thisIndex,study_presen.ran,testHint_presen.thisRepN,testHint_presen.thisTrialN,testHint_presen.thisN,testHint_presen.thisIndex,testHint_presen.ran,testResp.keys,testResp.corr,testResp.rt,testsize,condTest,test_loop.thisRepN,test_loop.thisTrialN,test_loop.thisN,test_loop.thisIndex,test_loop.ran,testIndx,TBR_loop.thisRepN,TBR_loop.thisTrialN,TBR_loop.thisN,TBR_loop.thisIndex,TBR_loop.ran,schResp.keys,schResp.corr,schResp.rt,setsize,subCategory,category,cond,stimImg,sch_loop.thisRepN,sch_loop.thisTrialN,sch_loop.thisN,sch_loop.thisIndex,sch_loop.ran,trialIndx,brkResp.keys,brkResp.rt,blockOrd.thisRepN,blockOrd.thisTrialN,blockOrd.thisN,blockOrd.thisIndex,blockOrd.ran,stimCateList,stimCate,testOrd
space,15.191635,0,0,0,0,1,Instructions/instr1.png,5f378e1794a0ef2151ccf4bf,23,M,R,2020-09-11_11h19.32.425,Hybrid_Search_Task,2020.2.3,Win32,60,,,,,,,,,,,,,,,,,,,,,,,,,,,,,,,,,,,,,,,,,,,,,,,,,,,,,,,,,,,,,,,,,,,,,,,,,,,,,,,,,,,,,,,,,,,,,,,,,,,,,,,,,,,,,,,,,,,,,,,,,,,,,,,,,,,,,,,,,,,,,,,,,,,,,,,,,,,,,,,,,,,,
space,21.543895,0,1,1,1,1,Instructions/instr2.png,5f378e1794a0ef2151ccf4bf,23,M,R,2020-09-11_11h19.32.425,Hybrid_Search_Task,2020.2.3,Win32,60,,,,,,,,,,,,,,,,,,,,,,,,,,,,,,,,,,,,,,,,,,,,,,,,,,,,,,,,,,,,,,,,,,,,,,,,,,,,,,,,,,,,,,,,,,,,,,,,,,,,,,,,,,,,,,,,,,,,,,,,,,,,,,,,,,,,,,,,,,,,,,,,,,,,,,,,,,,,,,,,,,,,
space,5.511375,0,2,2,2,1,Instructions/instr3.png,5f378e1794a0ef2151ccf4bf,23,M,R,2020-09-11_11h19.32.425,Hybrid_Search_Task,2020.2.3,Win32,60,,,,,,,,,,,,,,,,,,,,,,,,,,,,,,,,,,,,,,,,,,,,,,,,,,,,,,,,,,,,,,,,,,,,,,,,,,,,,,,,,,,,,,,,,,,,,,,,,,,,,,,,,,,,,,,,,,,,,,,,,,,,,,,,,,,,,,,,,,,,,,,,,,,,,,,,,,,,,,,,,,,,
space,13.49164,0,3,3,3,1,Instructions/instr4.png,5f378e1794a0ef2151ccf4bf,23,M,R,2020-09-11_11h19.32.425,Hybrid_Search_Task,2020.2.3,Win32,60,,,,,,,,,,,,,,,,,,,,,,,,,,,,,,,,,,,,,,,,,,,,,,,,,,,,,,,,,,,,,,,,,,,,,,,,,,,,,,,,,,,,,,,,,,,,,,,,,,,,,,,,,,,,,,,,,,,,,,,,,,,,,,,,,,,,,,,,,,,,,,,,,,,,,,,,,,,,,,,,,,,,
,,,,,,,,5f378e1794a0ef2151ccf4bf,23,M,R,2020-09-11_11h19.32.425,Hybrid_Search_Task,2020.2.3,Win32,60,z,12.17862,m,2.73386,space,7.31539,0,0,0,0,1,Instructions/instr7.png,,,,,,,,,,,,,,,,,,,,,,,,,,,,,,,,,,,,,,,,,,,,,,,,,,,,,,,,,,,,,,,,,,,,,,,,,,,,,,,,,,,,,,,,,,,,,,,,,,,,,,,,,,,,,,,,,,,,,,,,,,,,,,,,,,,,,,,,,,,,,,,,,,,,,,,,
,,,,,,,,5f378e1794a0ef2151ccf4bf,23,M,R,2020-09-11_11h19.32.425,Hybrid_Search_Task,2020.2.3,Win32,60,,,,,space,22.44509,0,1,1,1,1,Instructions/instr8.png,,,,,,,,,,,,,,,,,,,,,,,,,,,,,,,,,,,,,,,,,,,,,,,,,,,,,,,,,,,,,,,,,,,,,,,,,,,,,,,,,,,,,,,,,,,,,,,,,,,,,,,,,,,,,,,,,,,,,,,,,,,,,,,,,,,,,,,,,,,,,,,,,,,,,,,,
,,,,,,,,5f378e1794a0ef2151ccf4bf,23,M,R,2020-09-11_11h19.32.425,Hybrid_Search_Task,2020.2.3,Win32,60,,,,,space,8.41103,0,2,2,2,1,Instructions/instr9.png,,,,,,,,,,,,,,,,,,,,,,,,,,,,,,,,,,,,,,,,,,,,,,,,,,,,,,,,,,,,,,,,,,,,,,,,,,,,,,,,,,,,,,,,,,,,,,,,,,,,,,,,,,,,,,,,,,,,,,,,,,,,,,,,,,,,,,,,,,,,,,,,,,,,,,,,
,,,,,,,,5f378e1794a0ef2151ccf4bf,23,M,R,2020-09-11_11h19.32.425,Hybrid_Search_Task,2020.2.3,Win32,60,,,,,,,,,,,,,m,9.682165,space,3.907095,,0,0,0,1,1,Instructions/s3.jpg,,,,,,,,,,,,,,,,,,,,,,,,,,,,,,,,,,,,,,,,,,,,,,,,,,,,,,,,,,,,,,,,,,,,,,,,,,,,,,,,,,,,,,,,,,,,,,,,,,,,,,,,,,,,,,,,,,,,,,,,,,,,,,,,,,,,,,,,,,,,,
,,,,,,,,5f378e1794a0ef2151ccf4bf,23,M,R,2020-09-11_11h19.32.425,Hybrid_Search_Task,2020.2.3,Win32,60,,,,,,,,,,,,,,,,,,0,1,1,0,1,Instructions/s2.jpg,,,,,,,,,,,,,,,,,,,,,,,,,,,,,,,,,,,,,,,,,,,,,,,,,,,,,,,,,,,,,,,,,,,,,,,,,,,,,,,,,,,,,,,,,,,,,,,,,,,,,,,,,,,,,,,,,,,,,,,,,,,,,,,,,,,,,,,,,,,,,
,,,,,,,,5f378e1794a0ef2151ccf4bf,23,M,R,2020-09-11_11h19.32.425,Hybrid_Search_Task,2020.2.3,Win32,60,,,,,,,,,,,,,,,,,,,,,,,,space,30.46651,space,4.648245,0,0,0,1,1,Practice/PracTarg/02.jpg,,,,,,,,,,,,,,,,,,,,,,,,,,,,,,,,,,,,,,,,,,,,,,,,,,,,,,,,,,,,,,,,,,,,,,,,,,,,,,,,,,,,,,,,,,,,,,,,,,,,,,,,,,,,,,,,,,,,,,,,,,,,,,,,,,,
,,,,,,,,5f378e1794a0ef2151ccf4bf,23,M,R,2020-09-11_11h19.32.425,Hybrid_Search_Task,2020.2.3,Win32,60,,,,,,,,,,,,,,,,,,,,,,,,,,,,0,1,1,0,1,Practice/PracTarg/01.jpg,,,,,,,,,,,,,,,,,,,,,,,,,,,,,,,,,,,,,,,,,,,,,,,,,,,,,,,,,,,,,,,,,,,,,,,,,,,,,,,,,,,,,,,,,,,,,,,,,,,,,,,,,,,,,,,,,,,,,,,,,,,,,,,,,,,
,,,,,,,,5f378e1794a0ef2151ccf4bf,23,M,R,2020-09-11_11h19.32.425,Hybrid_Search_Task,2020.2.3,Win32,60,,,,,,,,,,,,,,,,,,,,,,,,,,,,,,,,,,0,0,0,0,1,,,,,,,,,,,,,,,,,,,,,,,,,,,,,,,,,,,,,,,,,,,,,,,,,,,,,,,,,,,,,,,,,,,,,,,,,,,,,,,,,,,,,,,,,,,,,,,,,,,,,,,,,,,,,,,,,,,,,,,,,,,,,,
,,,,,,,,5f378e1794a0ef2151ccf4bf,23,M,R,2020-09-11_11h19.32.425,Hybrid_Search_Task,2020.2.3,Win32,60,,,,,,,,,,,,,,,,,,,,,,,,,,,,,,,,,,,,,,,0,0,0,0,1,,,,,,,,,,,,,,,,,,,,,,,,,,,,,,,,,,,,,,,,,,,,,,,,,,,,,,,,,,,,,,,,,,,,,,,,,,,,,,,,,,,,,,,,,,,,,,,,,,,,,,,,,,,,,,,,,,,,,,,,,
,,,,,,,,5f378e1794a0ef2151ccf4bf,23,M,R,2020-09-11_11h19.32.425,Hybrid_Search_Task,2020.2.3,Win32,60,,,,,,,,,,,,,,,,,,,,,,,,,,,,,,,,,,,,,,,,,,,,z,1,0.69203,0,0,0,0,1,Practice/PracTarg/01.jpg,z,,,,,,,,,,,,,,,,,,,,,,,,,,,,,,,,,,,,,,,,,,,,,,,,,,,,,,,,,,,,,,,,,,,,,,,,,,,,,,,,,,,,,,,,,,,,,,,,,,,,,,,,,,,,,,,
,,,,,,,,5f378e1794a0ef2151ccf4bf,23,M,R,2020-09-11_11h19.32.425,Hybrid_Search_Task,2020.2.3,Win32,60,,,,,,,,,,,,,,,,,,,,,,,,,,,,,,,,,,,,,,,,,,,,z,1,0.72745,0,1,1,1,1,Practice/PracTarg/02.jpg,z,,,,,,,,,,,,,,,,,,,,,,,,,,,,,,,,,,,,,,,,,,,,,,,,,,,,,,,,,,,,,,,,,,,,,,,,,,,,,,,,,,,,,,,,,,,,,,,,,,,,,,,,,,,,,,,
,,,,,,,,5f378e1794a0ef2151ccf4bf,23,M,R,2020-09-11_11h19.32.425,Hybrid_Search_Task,2020.2.3,Win32,60,,,,,,,,,,,,,,,,,,,,,,,,,,,,,,,,,,,,,,,,,,,,m,1,0.7139,0,2,2,3,1,Practice/PracTest/02_1.jpg,m,,,,,,,,,,,,,,,,,,,,,,,,,,,,,,,,,,,,,,,,,,,,,,,,,,,,,,,,,,,,,,,,,,,,,,,,,,,,,,,,,,,,,,,,,,,,,,,,,,,,,,,,,,,,,,,
,,,,,,,,5f378e1794a0ef2151ccf4bf,23,M,R,2020-09-11_11h19.32.425,Hybrid_Search_Task,2020.2.3,Win32,60,,,,,,,,,,,,,,,,,,,,,,,,,,,,,,,,,,,,,,,,,,,,m,1,0.796615,0,3,3,2,1,Practice/PracTest/01_1.jpg,m,,,,,,,,,,,,,,,,,,,,,,,,,,,,,,,,,,,,,,,,,,,,,,,,,,,,,,,,,,,,,,,,,,,,,,,,,,,,,,,,,,,,,,,,,,,,,,,,,,,,,,,,,,,,,,,
,,,,,,,,5f378e1794a0ef2151ccf4bf,23,M,R,2020-09-11_11h19.32.425,Hybrid_Search_Task,2020.2.3,Win32,60,,,,,,,,,,,,,,,,,,,,,,,,,,,,,,,,,,,,,,,,,,,,,,,,,,,,,,0,0,0,0,1,,,,,,,,,,,,,,,,,,,,,,,,,,,,,,,,,,,,,,,,,,,,,,,,,,,,,,,,,,,,,,,,,,,,,,,,,,,,,,,,,,,,,,,,,,,,,,,,,,,,,,,,,,
,,,,,,,,5f378e1794a0ef2151ccf4bf,23,M,R,2020-09-11_11h19.32.425,Hybrid_Search_Task,2020.2.3,Win32,60,,,,,,,,,,,,,,,,,,,,,,,,,,,,,,,,,,,,,,,0,0,0,0,1,,,,,,,,,,,,,,,,,,,,,,,,,,,,,,,,,,,,,,,,,,,,,,,,,,,,,,,,,,,,,,,,,,,,,,,,,,,,,,,,,,,,,,,,,,,,,,,,,,,,,,,,,,,,,,,,,,,,,,,,,
,,,,,,,,5f378e1794a0ef2151ccf4bf,23,M,R,2020-09-11_11h19.32.425,Hybrid_Search_Task,2020.2.3,Win32,60,,,,,,,,,,,,,,,,,,,,,,,,,,,,,,,,,,,,,,,,,,,,z,0,2.72891,0,0,0,2,1,Practice/PracTest/01_2.jpg,m,,,,,,,,,,,,,,,,,,,,,,,,,,,,,,,,,,,,,,,,,,,,,,,,,,,,,,,,,,,,,,,,,,,,,,,,,,,,,,,,,,,,,,,,,,,,,,,,,,,,,,,,,,,,,,,
,,,,,,,,5f378e1794a0ef2151ccf4bf,23,M,R,2020-09-11_11h19.32.425,Hybrid_Search_Task,2020.2.3,Win32,60,,,,,,,,,,,,,,,,,,,,,,,,,,,,,,,,,,,,,,,,,,,,z,1,0.95076,0,1,1,0,1,Practice/PracTarg/01.jpg,z,,,,,,,,,,,,,,,,,,,,,,,,,,,,,,,,,,,,,,,,,,,,,,,,,,,,,,,,,,,,,,,,,,,,,,,,,,,,,,,,,,,,,,,,,,,,,,,,,,,,,,,,,,,,,,,
,,,,,,,,5f378e1794a0ef2151ccf4bf,23,M,R,2020-09-11_11h19.32.425,Hybrid_Search_Task,2020.2.3,Win32,60,,,,,,,,,,,,,,,,,,,,,,,,,,,,,,,,,,,,,,,,,,,,z,1,1.14335,0,2,2,1,1,Practice/PracTarg/02.jpg,z,,,,,,,,,,,,,,,,,,,,,,,,,,,,,,,,,,,,,,,,,,,,,,,,,,,,,,,,,,,,,,,,,,,,,,,,,,,,,,,,,,,,,,,,,,,,,,,,,,,,,,,,,,,,,,,
,,,,,,,,5f378e1794a0ef2151ccf4bf,23,M,R,2020-09-11_11h19.32.425,Hybrid_Search_Task,2020.2.3,Win32,60,,,,,,,,,,,,,,,,,,,,,,,,,,,,,,,,,,,,,,,,,,,,m,1,0.76931,0,3,3,3,1,Practice/PracTest/02_2.jpg,m,,,,,,,,,,,,,,,,,,,,,,,,,,,,,,,,,,,,,,,,,,,,,,,,,,,,,,,,,,,,,,,,,,,,,,,,,,,,,,,,,,,,,,,,,,,,,,,,,,,,,,,,,,,,,,,
,,,,,,,,5f378e1794a0ef2151ccf4bf,23,M,R,2020-09-11_11h19.32.425,Hybrid_Search_Task,2020.2.3,Win32,60,,,,,,,,,,,,,,,,,,,,,,,,,,,,,,,,,,,,,,,,,,,,,,,,,,,,,,1,0,1,0,1,,,,,,,,,,,,,,,,,,,,,,,,,,,,,,,,,,,,,,,,,,,,,,,,,,,,,,,,,,,,,,,,,,,,,,,,,,,,,,,,,,,,,,,,,,,,,,,,,,,,,,,,,,
,,,,,,,,5f378e1794a0ef2151ccf4bf,23,M,R,2020-09-11_11h19.32.425,Hybrid_Search_Task,2020.2.3,Win32,60,,,,,,,,,,,,,,,,,,,,,,,,,,,,0,0,0,0,1,Practice/PracTarg/01.jpg,,,,,,,,,,,,,,,,,,,,,,,,,,,,,,,,,,,,,,,,,,,,,,,,,,,,,,,,,,,,,,,,,,,,,,,,,,,,,,,,,,,,,,,,,,,,,,,,,,,,,,,,,,,,,,,,,,,,,,,,,,,,,,,,,,,
,,,,,,,,5f378e1794a0ef2151ccf4bf,23,M,R,2020-09-11_11h19.32.425,Hybrid_Search_Task,2020.2.3,Win32,60,,,,,,,,,,,,,,,,,,,,,,,,,,,,0,1,1,1,1,Practice/PracTarg/02.jpg,,,,,,,,,,,,,,,,,,,,,,,,,,,,,,,,,,,,,,,,,,,,,,,,,,,,,,,,,,,,,,,,,,,,,,,,,,,,,,,,,,,,,,,,,,,,,,,,,,,,,,,,,,,,,,,,,,,,,,,,,,,,,,,,,,,
,,,,,,,,5f378e1794a0ef2151ccf4bf,23,M,R,2020-09-11_11h19.32.425,Hybrid_Search_Task,2020.2.3,Win32,60,,,,,,,,,,,,,,,,,,,,,,,,,,,,,,,,,,0,0,0,0,1,,,,,,,,,,,,,,,,,,,,,,,,,,,,,,,,,,,,,,,,,,,,,,,,,,,,,,,,,,,,,,,,,,,,,,,,,,,,,,,,,,,,,,,,,,,,,,,,,,,,,,,,,,,,,,,,,,,,,,,,,,,,,,
,,,,,,,,5f378e1794a0ef2151ccf4bf,23,M,R,2020-09-11_11h19.32.425,Hybrid_Search_Task,2020.2.3,Win32,60,,,,,,,,,,,,,,,,,,,,,,,,,,,,,,,,,,,,,,,0,0,0,0,1,,,,,,,,,,,,,,,,,,,,,,,,,,,,,,,,,,,,,,,,,,,,,,,,,,,,,,,,,,,,,,,,,,,,,,,,,,,,,,,,,,,,,,,,,,,,,,,,,,,,,,,,,,,,,,,,,,,,,,,,,
,,,,,,,,5f378e1794a0ef2151ccf4bf,23,M,R,2020-09-11_11h19.32.425,Hybrid_Search_Task,2020.2.3,Win32,60,,,,,,,,,,,,,,,,,,,,,,,,,,,,,,,,,,,,,,,,,,,,m,1,0.88249,0,0,0,2,1,Practice/PracTest/01_2.jpg,m,,,,,,,,,,,,,,,,,,,,,,,,,,,,,,,,,,,,,,,,,,,,,,,,,,,,,,,,,,,,,,,,,,,,,,,,,,,,,,,,,,,,,,,,,,,,,,,,,,,,,,,,,,,,,,,
,,,,,,,,5f378e1794a0ef2151ccf4bf,23,M,R,2020-09-11_11h19.32.425,Hybrid_Search_Task,2020.2.3,Win32,60,,,,,,,,,,,,,,,,,,,,,,,,,,,,,,,,,,,,,,,,,,,,m,1,0.73542,0,1,1,3,1,Practice/PracTest/02_2.jpg,m,,,,,,,,,,,,,,,,,,,,,,,,,,,,,,,,,,,,,,,,,,,,,,,,,,,,,,,,,,,,,,,,,,,,,,,,,,,,,,,,,,,,,,,,,,,,,,,,,,,,,,,,,,,,,,,
,,,,,,,,5f378e1794a0ef2151ccf4bf,23,M,R,2020-09-11_11h19.32.425,Hybrid_Search_Task,2020.2.3,Win32,60,,,,,,,,,,,,,,,,,,,,,,,,,,,,,,,,,,,,,,,,,,,,z,1,0.63689,0,2,2,0,1,Practice/PracTarg/01.jpg,z,,,,,,,,,,,,,,,,,,,,,,,,,,,,,,,,,,,,,,,,,,,,,,,,,,,,,,,,,,,,,,,,,,,,,,,,,,,,,,,,,,,,,,,,,,,,,,,,,,,,,,,,,,,,,,,
,,,,,,,,5f378e1794a0ef2151ccf4bf,23,M,R,2020-09-11_11h19.32.425,Hybrid_Search_Task,2020.2.3,Win32,60,,,,,,,,,,,,,,,,,,,,,,,,,,,,,,,,,,,,,,,,,,,,z,1,0.508575,0,3,3,1,1,Practice/PracTarg/02.jpg,z,,,,,,,,,,,,,,,,,,,,,,,,,,,,,,,,,,,,,,,,,,,,,,,,,,,,,,,,,,,,,,,,,,,,,,,,,,,,,,,,,,,,,,,,,,,,,,,,,,,,,,,,,,,,,,,
,,,,,,,,5f378e1794a0ef2151ccf4bf,23,M,R,2020-09-11_11h19.32.425,Hybrid_Search_Task,2020.2.3,Win32,60,,,,,,,,,,,,,,,,,,,,,,,,,,,,,,,,,,,,,,,,,,,,,,,,,,,,,,2,0,2,0,1,,,,,,,,,,,,,,,,,,,,,,,,,,,,,,,,,,,,,,,,,,,,,,,,,,,,,,,,,,,,,,,,,,,,,,,,,,,,,,,,,,,,,,,,,,,,,,,,,,,,,,,,,,
,,,,,,,,5f378e1794a0ef2151ccf4bf,23,M,R,2020-09-11_11h19.32.425,Hybrid_Search_Task,2020.2.3,Win32,60,,,,,,,,,,,,,,,,,,,,,,,,,,,,,,,,,,,,,,,0,0,0,0,1,,,,,,,,,,,,,,,,,,,,,,,,,,,,,,,,,,,,,,,,,,,,,,,,,,,,,,,,,,,,,,,,,,,,,,,,,,,,,,,,,,,,,,,,,,,,,,,,,,,,,,,,,,,,,,,,,,,,,,,,,
,,,,,,,,5f378e1794a0ef2151ccf4bf,23,M,R,2020-09-11_11h19.32.425,Hybrid_Search_Task,2020.2.3,Win32,60,,,,,,,,,,,,,,,,,,,,,,,,,,,,,,,,,,,,,,,,,,,,z,1,3.62071,0,0,0,0,1,Practice/PracTarg/01.jpg,z,,,,,,,,,,,,,,,,,,,,,,,,,,,,,,,,,,,,,,,,,,,,,,,,,,,,,,,,,,,,,,,,,,,,,,,,,,,,,,,,,,,,,,,,,,,,,,,,,,,,,,,,,,,,,,,
,,,,,,,,5f378e1794a0ef2151ccf4bf,23,M,R,2020-09-11_11h19.32.425,Hybrid_Search_Task,2020.2.3,Win32,60,,,,,,,,,,,,,,,,,,,,,,,,,,,,,,,,,,,,,,,,,,,,m,1,0.82636,0,1,1,3,1,Practice/PracTest/02_3.jpg,m,,,,,,,,,,,,,,,,,,,,,,,,,,,,,,,,,,,,,,,,,,,,,,,,,,,,,,,,,,,,,,,,,,,,,,,,,,,,,,,,,,,,,,,,,,,,,,,,,,,,,,,,,,,,,,,
,,,,,,,,5f378e1794a0ef2151ccf4bf,23,M,R,2020-09-11_11h19.32.425,Hybrid_Search_Task,2020.2.3,Win32,60,,,,,,,,,,,,,,,,,,,,,,,,,,,,,,,,,,,,,,,,,,,,z,1,0.88993,0,2,2,1,1,Practice/PracTarg/02.jpg,z,,,,,,,,,,,,,,,,,,,,,,,,,,,,,,,,,,,,,,,,,,,,,,,,,,,,,,,,,,,,,,,,,,,,,,,,,,,,,,,,,,,,,,,,,,,,,,,,,,,,,,,,,,,,,,,
,,,,,,,,5f378e1794a0ef2151ccf4bf,23,M,R,2020-09-11_11h19.32.425,Hybrid_Search_Task,2020.2.3,Win32,60,,,,,,,,,,,,,,,,,,,,,,,,,,,,,,,,,,,,,,,,,,,,m,1,0.776875,0,3,3,2,1,Practice/PracTest/01_3.jpg,m,,,,,,,,,,,,,,,,,,,,,,,,,,,,,,,,,,,,,,,,,,,,,,,,,,,,,,,,,,,,,,,,,,,,,,,,,,,,,,,,,,,,,,,,,,,,,,,,,,,,,,,,,,,,,,,
,,,,,,,,5f378e1794a0ef2151ccf4bf,23,M,R,2020-09-11_11h19.32.425,Hybrid_Search_Task,2020.2.3,Win32,60,,,,,,,,,,,,,,,,,,,,,,,,,,,,,,,,,,,,,,,,,,,,,,,,,,,,,,3,0,3,0,1,,,,,,,,,,,,,,,,,,,,,,,,,,,,,,,,,,,,,,,,,,,,,,,,,,,,,,,,,,,,,,,,,,,,,,,,,,,,,,,,,,,,,,,,,,,,,,,,,,,,,,,,,,
,,,,,,,,5f378e1794a0ef2151ccf4bf,23,M,R,2020-09-11_11h19.32.425,Hybrid_Search_Task,2020.2.3,Win32,60,,,,,,,,,,,,,,,,,,,,,,,,,,,,,,,,,,,,,,,,,,,,,,,,,,,,,,4,0,4,0,1,,,,,,,,,,,,,,,,,,,,,,,,,,,,,,,,,,,,,,,,,,,,,,,,,,,,,,,,,,,,,,,,,,,,,,,,,,,,,,,,,,,,,,,,,,,,,,,,,,,,,,,,,,
,,,,,,,,5f378e1794a0ef2151ccf4bf,23,M,R,2020-09-11_11h19.32.425,Hybrid_Search_Task,2020.2.3,Win32,60,,,,,,,,,,,,,,,,,,,,,,,,,,,,,,,,,,,,,,,,,,,,,,,,,,,,,m,,,,,,,0,0,0,0,6,1,Practice/PracSearch/1_3.jpg,,,,,,,,,,,,,,,,,,,,,,,,,,,,,,,,,,,,,,,,,,,,,,,,,,,,,,,,,,,,,,,,,,,,,,,,,,,,,,,,,,,,,,,,,,,,,,,,,,
,,,,,,,,5f378e1794a0ef2151ccf4bf,23,M,R,2020-09-11_11h19.32.425,Hybrid_Search_Task,2020.2.3,Win32,60,,,,,,,,,,,,,,,,,,,,,,,,,,,,,,,,,,,,,,,,,,,,,,,,,,,,,m,,,,,,,0,0,1,1,4,1,Practice/PracSearch/1_1.jpg,,,,,,,,,,,,,,,,,,,,,,,,,,,,,,,,,,,,,,,,,,,,,,,,,,,,,,,,,,,,,,,,,,,,,,,,,,,,,,,,,,,,,,,,,,,,,,,,,,
,,,,,,,,5f378e1794a0ef2151ccf4bf,23,M,R,2020-09-11_11h19.32.425,Hybrid_Search_Task,2020.2.3,Win32,60,,,,,,,,,,,,,,,,,,,,,,,,,,,,,,,,,,,,,,,,,,,,,,,,,,,,,m,,,,,,,0,0,2,2,19,1,Practice/PracSearch/12_2.jpg,,,,,,,,,,,,,,,,,,,,,,,,,,,,,,,,,,,,,,,,,,,,,,,,,,,,,,,,,,,,,,,,,,,,,,,,,,,,,,,,,,,,,,,,,,,,,,,,,,
,,,,,,,,5f378e1794a0ef2151ccf4bf,23,M,R,2020-09-11_11h19.32.425,Hybrid_Search_Task,2020.2.3,Win32,60,,,,,,,,,,,,,,,,,,,,,,,,,,,,,,,,,,,,,,,,,,,,,,,,,,,,,m,,,,,,,0,0,3,3,11,1,Practice/PracSearch/3_2.jpg,,,,,,,,,,,,,,,,,,,,,,,,,,,,,,,,,,,,,,,,,,,,,,,,,,,,,,,,,,,,,,,,,,,,,,,,,,,,,,,,,,,,,,,,,,,,,,,,,,
,,,,,,,,5f378e1794a0ef2151ccf4bf,23,M,R,2020-09-11_11h19.32.425,Hybrid_Search_Task,2020.2.3,Win32,60,,,,,,,,,,,,,,,,,,,,,,,,,,,,,,,,,,,,,,,,,,,,,,,,,,,,,m,,,,,,,0,0,4,4,9,1,Practice/PracSearch/2_3.jpg,,,,,,,,,,,,,,,,,,,,,,,,,,,,,,,,,,,,,,,,,,,,,,,,,,,,,,,,,,,,,,,,,,,,,,,,,,,,,,,,,,,,,,,,,,,,,,,,,,
,,,,,,,,5f378e1794a0ef2151ccf4bf,23,M,R,2020-09-11_11h19.32.425,Hybrid_Search_Task,2020.2.3,Win32,60,,,,,,,,,,,,,,,,,,,,,,,,,,,,,,,,,,,,,,,,,,,,,,,,,,,,,m,,,,,,,0,0,5,5,8,1,Practice/PracSearch/2_2.jpg,,,,,,,,,,,,,,,,,,,,,,,,,,,,,,,,,,,,,,,,,,,,,,,,,,,,,,,,,,,,,,,,,,,,,,,,,,,,,,,,,,,,,,,,,,,,,,,,,,
,,,,,,,,5f378e1794a0ef2151ccf4bf,23,M,R,2020-09-11_11h19.32.425,Hybrid_Search_Task,2020.2.3,Win32,60,,,,,,,,,,,,,,,,,,,,,,,,,,,,,,,,,,,,,,,,,,,,,,,,,,,,,m,,,,,,,0,0,6,6,12,1,Practice/PracSearch/3_3.jpg,,,,,,,,,,,,,,,,,,,,,,,,,,,,,,,,,,,,,,,,,,,,,,,,,,,,,,,,,,,,,,,,,,,,,,,,,,,,,,,,,,,,,,,,,,,,,,,,,,
,,,,,,,,5f378e1794a0ef2151ccf4bf,23,M,R,2020-09-11_11h19.32.425,Hybrid_Search_Task,2020.2.3,Win32,60,,,,,,,,,,,,,,,,,,,,,,,,,,,,,,,,,,,,,,,,,,,,,,,,,,,,,m,,,,,,,0,0,7,7,14,1,Practice/PracSearch/10_2.jpg,,,,,,,,,,,,,,,,,,,,,,,,,,,,,,,,,,,,,,,,,,,,,,,,,,,,,,,,,,,,,,,,,,,,,,,,,,,,,,,,,,,,,,,,,,,,,,,,,,
,,,,,,,,5f378e1794a0ef2151ccf4bf,23,M,R,2020-09-11_11h19.32.425,Hybrid_Search_Task,2020.2.3,Win32,60,,,,,,,,,,,,,,,,,,,,,,,,,,,,,,,,,,,,,,,,,,,,,,,,,,,,,z,,,,,,z,1,0,8,8,3,1,Practice/PracTarg/02.jpg,0.604615,,,,,,,,,,,,,,,,,,,,,,,,,,,,,,,,,,,,,,,,,,,,,,,,,,,,,,,,,,,,,,,,,,,,,,,,,,,,,,,,,,,,,,,,,,,,,,,,,
,,,,,,,,5f378e1794a0ef2151ccf4bf,23,M,R,2020-09-11_11h19.32.425,Hybrid_Search_Task,2020.2.3,Win32,60,,,,,,,,,,,,,,,,,,,,,,,,,,,,,,,,,,,,,,,,,,,,,,,,,,,,,z,,,,,,z,1,0,9,9,0,1,Practice/PracTarg/01.jpg,0.64229,,,,,,,,,,,,,,,,,,,,,,,,,,,,,,,,,,,,,,,,,,,,,,,,,,,,,,,,,,,,,,,,,,,,,,,,,,,,,,,,,,,,,,,,,,,,,,,,,
,,,,,,,,5f378e1794a0ef2151ccf4bf,23,M,R,2020-09-11_11h19.32.425,Hybrid_Search_Task,2020.2.3,Win32,60,,,,,,,,,,,,,,,,,,,,,,,,,,,,,,,,,,,,,,,,,,,,,,,,,,,,,m,,,,,,,0,0,10,10,18,1,Practice/PracSearch/12_1.jpg,,,,,,,,,,,,,,,,,,,,,,,,,,,,,,,,,,,,,,,,,,,,,,,,,,,,,,,,,,,,,,,,,,,,,,,,,,,,,,,,,,,,,,,,,,,,,,,,,,
,,,,,,,,5f378e1794a0ef2151ccf4bf,23,M,R,2020-09-11_11h19.32.425,Hybrid_Search_Task,2020.2.3,Win32,60,,,,,,,,,,,,,,,,,,,,,,,,,,,,,,,,,,,,,,,,,,,,,,,,,,,,,z,,,,,,z,1,0,11,11,2,1,Practice/PracTarg/01.jpg,0.6016,,,,,,,,,,,,,,,,,,,,,,,,,,,,,,,,,,,,,,,,,,,,,,,,,,,,,,,,,,,,,,,,,,,,,,,,,,,,,,,,,,,,,,,,,,,,,,,,,
,,,,,,,,5f378e1794a0ef2151ccf4bf,23,M,R,2020-09-11_11h19.32.425,Hybrid_Search_Task,2020.2.3,Win32,60,,,,,,,,,,,,,,,,,,,,,,,,,,,,,,,,,,,,,,,,,,,,,,,,,,,,,m,,,,,,,0,0,12,12,7,1,Practice/PracSearch/2_1.jpg,,,,,,,,,,,,,,,,,,,,,,,,,,,,,,,,,,,,,,,,,,,,,,,,,,,,,,,,,,,,,,,,,,,,,,,,,,,,,,,,,,,,,,,,,,,,,,,,,,
,,,,,,,,5f378e1794a0ef2151ccf4bf,23,M,R,2020-09-11_11h19.32.425,Hybrid_Search_Task,2020.2.3,Win32,60,,,,,,,,,,,,,,,,,,,,,,,,,,,,,,,,,,,,,,,,,,,,,,,,,,,,,m,,,,,,,0,0,13,13,17,1,Practice/PracSearch/11_2.jpg,,,,,,,,,,,,,,,,,,,,,,,,,,,,,,,,,,,,,,,,,,,,,,,,,,,,,,,,,,,,,,,,,,,,,,,,,,,,,,,,,,,,,,,,,,,,,,,,,,
,,,,,,,,5f378e1794a0ef2151ccf4bf,23,M,R,2020-09-11_11h19.32.425,Hybrid_Search_Task,2020.2.3,Win32,60,,,,,,,,,,,,,,,,,,,,,,,,,,,,,,,,,,,,,,,,,,,,,,,,,,,,,m,,,,,,,0,0,14,14,15,1,Practice/PracSearch/10_3.jpg,,,,,,,,,,,,,,,,,,,,,,,,,,,,,,,,,,,,,,,,,,,,,,,,,,,,,,,,,,,,,,,,,,,,,,,,,,,,,,,,,,,,,,,,,,,,,,,,,,
,,,,,,,,5f378e1794a0ef2151ccf4bf,23,M,R,2020-09-11_11h19.32.425,Hybrid_Search_Task,2020.2.3,Win32,60,,,,,,,,,,,,,,,,,,,,,,,,,,,,,,,,,,,,,,,,,,,,,,,,,,,,,m,,,,,,,0,0,15,15,16,1,Practice/PracSearch/11_1.jpg,,,,,,,,,,,,,,,,,,,,,,,,,,,,,,,,,,,,,,,,,,,,,,,,,,,,,,,,,,,,,,,,,,,,,,,,,,,,,,,,,,,,,,,,,,,,,,,,,,
,,,,,,,,5f378e1794a0ef2151ccf4bf,23,M,R,2020-09-11_11h19.32.425,Hybrid_Search_Task,2020.2.3,Win32,60,,,,,,,,,,,,,,,,,,,,,,,,,,,,,,,,,,,,,,,,,,,,,,,,,,,,,m,,,,,,m,1,0,16,16,10,1,Practice/PracSearch/3_1.jpg,0.432575,,,,,,,,,,,,,,,,,,,,,,,,,,,,,,,,,,,,,,,,,,,,,,,,,,,,,,,,,,,,,,,,,,,,,,,,,,,,,,,,,,,,,,,,,,,,,,,,,
,,,,,,,,5f378e1794a0ef2151ccf4bf,23,M,R,2020-09-11_11h19.32.425,Hybrid_Search_Task,2020.2.3,Win32,60,,,,,,,,,,,,,,,,,,,,,,,,,,,,,,,,,,,,,,,,,,,,,,,,,,,,,m,,,,,,m,1,0,17,17,5,1,Practice/PracSearch/1_2.jpg,0.414165,,,,,,,,,,,,,,,,,,,,,,,,,,,,,,,,,,,,,,,,,,,,,,,,,,,,,,,,,,,,,,,,,,,,,,,,,,,,,,,,,,,,,,,,,,,,,,,,,
,,,,,,,,5f378e1794a0ef2151ccf4bf,23,M,R,2020-09-11_11h19.32.425,Hybrid_Search_Task,2020.2.3,Win32,60,,,,,,,,,,,,,,,,,,,,,,,,,,,,,,,,,,,,,,,,,,,,,,,,,,,,,m,,,,,,m,1,0,18,18,13,1,Practice/PracSearch/10_1.jpg,0.315755,,,,,,,,,,,,,,,,,,,,,,,,,,,,,,,,,,,,,,,,,,,,,,,,,,,,,,,,,,,,,,,,,,,,,,,,,,,,,,,,,,,,,,,,,,,,,,,,,
,,,,,,,,5f378e1794a0ef2151ccf4bf,23,M,R,2020-09-11_11h19.32.425,Hybrid_Search_Task,2020.2.3,Win32,60,,,,,,,,,,,,,,,,,,,,,,,,,,,,,,,,,,,,,,,,,,,,,,,,,,,,,z,,,,,,m,0,0,19,19,1,1,Practice/PracTarg/02.jpg,0.347435,,,,,,,,,,,,,,,,,,,,,,,,,,,,,,,,,,,,,,,,,,,,,,,,,,,,,,,,,,,,,,,,,,,,,,,,,,,,,,,,,,,,,,,,,,,,,,,,,
,,,,,,,,5f378e1794a0ef2151ccf4bf,23,M,R,2020-09-11_11h19.32.425,Hybrid_Search_Task,2020.2.3,Win32,60,,,,,,,,,,,,,,,,,,,,,,,,,,,,,,,,,,,,,,,,,,,,,,,,,,,,,,,,,,,,,,,,,,,,0,0,0,0,1,Practice/pStudy2.xlsx,Practice/pTest2_1.xlsx,Practice/pTest2_2.xlsx,Practice/pTest2_3.xlsx,Practice/pSearch2.xlsx,,,,,,,,,,,,,,,,,,,,,,,,,,,,,,,,,,,,,,,,,,,,,,,,,,,,,,,,,,,,,,,,,,,,,,,,,,,,,,,,,,,,,,,
,,,,,,,,5f378e1794a0ef2151ccf4bf,23,M,R,2020-09-11_11h19.32.425,Hybrid_Search_Task,2020.2.3,Win32,60,,,,,,,,,,,,,,,,,,,,,,,,,,,,,,,,,,,,,,,,,,,,,,,,,,,,,,,,,,,,,,,,,,,,,,,,,,,,,,space,12.915245,0,0,0,2,1,Objects,bowtie,Stimuli/Objects/bowtie/793_699_popup.jpg,,,,,,,,,,,,,,,,,,,,,,,,,,,,,,,,,,,,,,,,,,,,,,,,,,,,,,,,,,,,,,,,,,,,,,,,,,,,,
,,,,,,,,5f378e1794a0ef2151ccf4bf,23,M,R,2020-09-11_11h19.32.425,Hybrid_Search_Task,2020.2.3,Win32,60,,,,,,,,,,,,,,,,,,,,,,,,,,,,,,,,,,,,,,,,,,,,,,,,,,,,,,,,,,,,,,,,,,,,,,,,,,,,,,,,0,1,1,13,1,Objects,bowtie,Stimuli/Objects/bowtie/bowtie-1.jpg,,,,,,,,,,,,,,,,,,,,,,,,,,,,,,,,,,,,,,,,,,,,,,,,,,,,,,,,,,,,,,,,,,,,,,,,,,,,,
,,,,,,,,5f378e1794a0ef2151ccf4bf,23,M,R,2020-09-11_11h19.32.425,Hybrid_Search_Task,2020.2.3,Win32,60,,,,,,,,,,,,,,,,,,,,,,,,,,,,,,,,,,,,,,,,,,,,,,,,,,,,,,,,,,,,,,,,,,,,,,,,,,,,,,,,0,2,2,4,1,Objects,bowtie,Stimuli/Objects/bowtie/ABOWTIE10.jpg,,,,,,,,,,,,,,,,,,,,,,,,,,,,,,,,,,,,,,,,,,,,,,,,,,,,,,,,,,,,,,,,,,,,,,,,,,,,,
,,,,,,,,5f378e1794a0ef2151ccf4bf,23,M,R,2020-09-11_11h19.32.425,Hybrid_Search_Task,2020.2.3,Win32,60,,,,,,,,,,,,,,,,,,,,,,,,,,,,,,,,,,,,,,,,,,,,,,,,,,,,,,,,,,,,,,,,,,,,,,,,,,,,,,,,0,3,3,5,1,Objects,bowtie,Stimuli/Objects/bowtie/ABOWTIE2.jpg,,,,,,,,,,,,,,,,,,,,,,,,,,,,,,,,,,,,,,,,,,,,,,,,,,,,,,,,,,,,,,,,,,,,,,,,,,,,,
,,,,,,,,5f378e1794a0ef2151ccf4bf,23,M,R,2020-09-11_11h19.32.425,Hybrid_Search_Task,2020.2.3,Win32,60,,,,,,,,,,,,,,,,,,,,,,,,,,,,,,,,,,,,,,,,,,,,,,,,,,,,,,,,,,,,,,,,,,,,,,,,,,,,,,,,0,4,4,6,1,Objects,bowtie,Stimuli/Objects/bowtie/ABOWTIE3.jpg,,,,,,,,,,,,,,,,,,,,,,,,,,,,,,,,,,,,,,,,,,,,,,,,,,,,,,,,,,,,,,,,,,,,,,,,,,,,,
,,,,,,,,5f378e1794a0ef2151ccf4bf,23,M,R,2020-09-11_11h19.32.425,Hybrid_Search_Task,2020.2.3,Win32,60,,,,,,,,,,,,,,,,,,,,,,,,,,,,,,,,,,,,,,,,,,,,,,,,,,,,,,,,,,,,,,,,,,,,,,,,,,,,,,,,0,5,5,8,1,Objects,bowtie,Stimuli/Objects/bowtie/ABOWTIE5.jpg,,,,,,,,,,,,,,,,,,,,,,,,,,,,,,,,,,,,,,,,,,,,,,,,,,,,,,,,,,,,,,,,,,,,,,,,,,,,,
,,,,,,,,5f378e1794a0ef2151ccf4bf,23,M,R,2020-09-11_11h19.32.425,Hybrid_Search_Task,2020.2.3,Win32,60,,,,,,,,,,,,,,,,,,,,,,,,,,,,,,,,,,,,,,,,,,,,,,,,,,,,,,,,,,,,,,,,,,,,,,,,,,,,,,,,0,6,6,15,1,Objects,bowtie,Stimuli/Objects/bowtie/SM01.402cs.jpg,,,,,,,,,,,,,,,,,,,,,,,,,,,,,,,,,,,,,,,,,,,,,,,,,,,,,,,,,,,,,,,,,,,,,,,,,,,,,
,,,,,,,,5f378e1794a0ef2151ccf4bf,23,M,R,2020-09-11_11h19.32.425,Hybrid_Search_Task,2020.2.3,Win32,60,,,,,,,,,,,,,,,,,,,,,,,,,,,,,,,,,,,,,,,,,,,,,,,,,,,,,,,,,,,,,,,,,,,,,,,,,,,,,,,,0,7,7,12,1,Objects,bowtie,Stimuli/Objects/bowtie/bottle green bow tie 300.jpg,,,,,,,,,,,,,,,,,,,,,,,,,,,,,,,,,,,,,,,,,,,,,,,,,,,,,,,,,,,,,,,,,,,,,,,,,,,,,
,,,,,,,,5f378e1794a0ef2151ccf4bf,23,M,R,2020-09-11_11h19.32.425,Hybrid_Search_Task,2020.2.3,Win32,60,,,,,,,,,,,,,,,,,,,,,,,,,,,,,,,,,,,,,,,,,,,,,,,,,,,,,,,,,,,,,,,,,,,,,,,,,,,,,,,,0,8,8,11,1,Objects,bowtie,Stimuli/Objects/bowtie/ABOWTIE9.jpg,,,,,,,,,,,,,,,,,,,,,,,,,,,,,,,,,,,,,,,,,,,,,,,,,,,,,,,,,,,,,,,,,,,,,,,,,,,,,
,,,,,,,,5f378e1794a0ef2151ccf4bf,23,M,R,2020-09-11_11h19.32.425,Hybrid_Search_Task,2020.2.3,Win32,60,,,,,,,,,,,,,,,,,,,,,,,,,,,,,,,,,,,,,,,,,,,,,,,,,,,,,,,,,,,,,,,,,,,,,,,,,,,,,,,,0,9,9,14,1,Objects,bowtie,Stimuli/Objects/bowtie/BTS30.jpg,,,,,,,,,,,,,,,,,,,,,,,,,,,,,,,,,,,,,,,,,,,,,,,,,,,,,,,,,,,,,,,,,,,,,,,,,,,,,
,,,,,,,,5f378e1794a0ef2151ccf4bf,23,M,R,2020-09-11_11h19.32.425,Hybrid_Search_Task,2020.2.3,Win32,60,,,,,,,,,,,,,,,,,,,,,,,,,,,,,,,,,,,,,,,,,,,,,,,,,,,,,,,,,,,,,,,,,,,,,,,,,,,,,,,,0,10,10,3,1,Objects,bowtie,Stimuli/Objects/bowtie/ABOWTIE.jpg,,,,,,,,,,,,,,,,,,,,,,,,,,,,,,,,,,,,,,,,,,,,,,,,,,,,,,,,,,,,,,,,,,,,,,,,,,,,,
,,,,,,,,5f378e1794a0ef2151ccf4bf,23,M,R,2020-09-11_11h19.32.425,Hybrid_Search_Task,2020.2.3,Win32,60,,,,,,,,,,,,,,,,,,,,,,,,,,,,,,,,,,,,,,,,,,,,,,,,,,,,,,,,,,,,,,,,,,,,,,,,,,,,,,,,0,11,11,9,1,Objects,bowtie,Stimuli/Objects/bowtie/ABOWTIE7.jpg,,,,,,,,,,,,,,,,,,,,,,,,,,,,,,,,,,,,,,,,,,,,,,,,,,,,,,,,,,,,,,,,,,,,,,,,,,,,,
,,,,,,,,5f378e1794a0ef2151ccf4bf,23,M,R,2020-09-11_11h19.32.425,Hybrid_Search_Task,2020.2.3,Win32,60,,,,,,,,,,,,,,,,,,,,,,,,,,,,,,,,,,,,,,,,,,,,,,,,,,,,,,,,,,,,,,,,,,,,,,,,,,,,,,,,0,12,12,16,1,Objects,bowtie,Stimuli/Objects/bowtie/WT999001L.jpg,,,,,,,,,,,,,,,,,,,,,,,,,,,,,,,,,,,,,,,,,,,,,,,,,,,,,,,,,,,,,,,,,,,,,,,,,,,,,
,,,,,,,,5f378e1794a0ef2151ccf4bf,23,M,R,2020-09-11_11h19.32.425,Hybrid_Search_Task,2020.2.3,Win32,60,,,,,,,,,,,,,,,,,,,,,,,,,,,,,,,,,,,,,,,,,,,,,,,,,,,,,,,,,,,,,,,,,,,,,,,,,,,,,,,,0,13,13,1,1,Objects,bowtie,Stimuli/Objects/bowtie/22613_Bowtie_Clown_Large.jpg,,,,,,,,,,,,,,,,,,,,,,,,,,,,,,,,,,,,,,,,,,,,,,,,,,,,,,,,,,,,,,,,,,,,,,,,,,,,,
,,,,,,,,5f378e1794a0ef2151ccf4bf,23,M,R,2020-09-11_11h19.32.425,Hybrid_Search_Task,2020.2.3,Win32,60,,,,,,,,,,,,,,,,,,,,,,,,,,,,,,,,,,,,,,,,,,,,,,,,,,,,,,,,,,,,,,,,,,,,,,,,,,,,,,,,0,14,14,10,1,Objects,bowtie,Stimuli/Objects/bowtie/ABOWTIE8.jpg,,,,,,,,,,,,,,,,,,,,,,,,,,,,,,,,,,,,,,,,,,,,,,,,,,,,,,,,,,,,,,,,,,,,,,,,,,,,,
,,,,,,,,5f378e1794a0ef2151ccf4bf,23,M,R,2020-09-11_11h19.32.425,Hybrid_Search_Task,2020.2.3,Win32,60,,,,,,,,,,,,,,,,,,,,,,,,,,,,,,,,,,,,,,,,,,,,,,,,,,,,,,,,,,,,,,,,,,,,,,,,,,,,,,,,0,15,15,7,1,Objects,bowtie,Stimuli/Objects/bowtie/ABOWTIE4.jpg,,,,,,,,,,,,,,,,,,,,,,,,,,,,,,,,,,,,,,,,,,,,,,,,,,,,,,,,,,,,,,,,,,,,,,,,,,,,,
,,,,,,,,5f378e1794a0ef2151ccf4bf,23,M,R,2020-09-11_11h19.32.425,Hybrid_Search_Task,2020.2.3,Win32,60,,,,,,,,,,,,,,,,,,,,,,,,,,,,,,,,,,,,,,,,,,,,,,,,,,,,,,,,,,,,,,,,,,,,,,,,,,,,,,,,0,16,16,0,1,Objects,bowtie,Stimuli/Objects/bowtie/19778.jpg,,,,,,,,,,,,,,,,,,,,,,,,,,,,,,,,,,,,,,,,,,,,,,,,,,,,,,,,,,,,,,,,,,,,,,,,,,,,,
,,,,,,,,5f378e1794a0ef2151ccf4bf,23,M,R,2020-09-11_11h19.32.425,Hybrid_Search_Task,2020.2.3,Win32,60,,,,,,,,,,,,,,,,,,,,,,,,,,,,,,,,,,,,,,,,,,,,,,,,,,,,,,,,,,,,,,,,,,,,,,,,,,,,,,,,,,,,,,,,0,0,0,8,1,StimList/bowtie.xls,,,,,,,,,,,,,,,,,,,,,,,,,,,,,,,,,,,,,,,,,,,,,,,,,,,,,,,,,,,,,,,,,,,,,,,
,,,,,,,,5f378e1794a0ef2151ccf4bf,23,M,R,2020-09-11_11h19.32.425,Hybrid_Search_Task,2020.2.3,Win32,60,,,,,,,,,,,,,,,,,,,,,,,,,,,,,,,,,,,,,,,,,,,,,,,,,,,,,,,,,,,,,,,,,,,,,,,,,,,,,,,,0,0,0,6,1,Objects,makeupcompact,Stimuli/Objects/makeupcompact/b_y10133.jpg,,,,,,,,,,,,,,,,,,,,,,,,,,,,,,,,,,,,,,,,,,,,,,,,,,,,,,,,,,,,,,,,,,,,,,,,,,,,,
,,,,,,,,5f378e1794a0ef2151ccf4bf,23,M,R,2020-09-11_11h19.32.425,Hybrid_Search_Task,2020.2.3,Win32,60,,,,,,,,,,,,,,,,,,,,,,,,,,,,,,,,,,,,,,,,,,,,,,,,,,,,,,,,,,,,,,,,,,,,,,,,,,,,,,,,0,1,1,16,1,Objects,makeupcompact,Stimuli/Objects/makeupcompact/P95108_hero.jpg,,,,,,,,,,,,,,,,,,,,,,,,,,,,,,,,,,,,,,,,,,,,,,,,,,,,,,,,,,,,,,,,,,,,,,,,,,,,,
,,,,,,,,5f378e1794a0ef2151ccf4bf,23,M,R,2020-09-11_11h19.32.425,Hybrid_Search_Task,2020.2.3,Win32,60,,,,,,,,,,,,,,,,,,,,,,,,,,,,,,,,,,,,,,,,,,,,,,,,,,,,,,,,,,,,,,,,,,,,,,,,,,,,,,,,0,2,2,10,1,Objects,makeupcompact,Stimuli/Objects/makeupcompact/P181006_hero.jpg,,,,,,,,,,,,,,,,,,,,,,,,,,,,,,,,,,,,,,,,,,,,,,,,,,,,,,,,,,,,,,,,,,,,,,,,,,,,,
,,,,,,,,5f378e1794a0ef2151ccf4bf,23,M,R,2020-09-11_11h19.32.425,Hybrid_Search_Task,2020.2.3,Win32,60,,,,,,,,,,,,,,,,,,,,,,,,,,,,,,,,,,,,,,,,,,,,,,,,,,,,,,,,,,,,,,,,,,,,,,,,,,,,,,,,0,3,3,5,1,Objects,makeupcompact,Stimuli/Objects/makeupcompact/b_102019.jpg,,,,,,,,,,,,,,,,,,,,,,,,,,,,,,,,,,,,,,,,,,,,,,,,,,,,,,,,,,,,,,,,,,,,,,,,,,,,,
,,,,,,,,5f378e1794a0ef2151ccf4bf,23,M,R,2020-09-11_11h19.32.425,Hybrid_Search_Task,2020.2.3,Win32,60,,,,,,,,,,,,,,,,,,,,,,,,,,,,,,,,,,,,,,,,,,,,,,,,,,,,,,,,,,,,,,,,,,,,,,,,,,,,,,,,0,4,4,11,1,Objects,makeupcompact,Stimuli/Objects/makeupcompact/P183922_hero.jpg,,,,,,,,,,,,,,,,,,,,,,,,,,,,,,,,,,,,,,,,,,,,,,,,,,,,,,,,,,,,,,,,,,,,,,,,,,,,,
,,,,,,,,5f378e1794a0ef2151ccf4bf,23,M,R,2020-09-11_11h19.32.425,Hybrid_Search_Task,2020.2.3,Win32,60,,,,,,,,,,,,,,,,,,,,,,,,,,,,,,,,,,,,,,,,,,,,,,,,,,,,,,,,,,,,,,,,,,,,,,,,,,,,,,,,0,5,5,8,1,Objects,makeupcompact,Stimuli/Objects/makeupcompact/P109965_hero.jpg,,,,,,,,,,,,,,,,,,,,,,,,,,,,,,,,,,,,,,,,,,,,,,,,,,,,,,,,,,,,,,,,,,,,,,,,,,,,,
,,,,,,,,5f378e1794a0ef2151ccf4bf,23,M,R,2020-09-11_11h19.32.425,Hybrid_Search_Task,2020.2.3,Win32,60,,,,,,,,,,,,,,,,,,,,,,,,,,,,,,,,,,,,,,,,,,,,,,,,,,,,,,,,,,,,,,,,,,,,,,,,,,,,,,,,0,6,6,3,1,Objects,makeupcompact,Stimuli/Objects/makeupcompact/31SC4G8FDJL._AA280_.jpg,,,,,,,,,,,,,,,,,,,,,,,,,,,,,,,,,,,,,,,,,,,,,,,,,,,,,,,,,,,,,,,,,,,,,,,,,,,,,
,,,,,,,,5f378e1794a0ef2151ccf4bf,23,M,R,2020-09-11_11h19.32.425,Hybrid_Search_Task,2020.2.3,Win32,60,,,,,,,,,,,,,,,,,,,,,,,,,,,,,,,,,,,,,,,,,,,,,,,,,,,,,,,,,,,,,,,,,,,,,,,,,,,,,,,,0,7,7,2,1,Objects,makeupcompact,Stimuli/Objects/makeupcompact/262668_fpx.jpg,,,,,,,,,,,,,,,,,,,,,,,,,,,,,,,,,,,,,,,,,,,,,,,,,,,,,,,,,,,,,,,,,,,,,,,,,,,,,
,,,,,,,,5f378e1794a0ef2151ccf4bf,23,M,R,2020-09-11_11h19.32.425,Hybrid_Search_Task,2020.2.3,Win32,60,,,,,,,,,,,,,,,,,,,,,,,,,,,,,,,,,,,,,,,,,,,,,,,,,,,,,,,,,,,,,,,,,,,,,,,,,,,,,,,,0,8,8,7,1,Objects,makeupcompact,Stimuli/Objects/makeupcompact/P0754_hero.jpg,,,,,,,,,,,,,,,,,,,,,,,,,,,,,,,,,,,,,,,,,,,,,,,,,,,,,,,,,,,,,,,,,,,,,,,,,,,,,
,,,,,,,,5f378e1794a0ef2151ccf4bf,23,M,R,2020-09-11_11h19.32.425,Hybrid_Search_Task,2020.2.3,Win32,60,,,,,,,,,,,,,,,,,,,,,,,,,,,,,,,,,,,,,,,,,,,,,,,,,,,,,,,,,,,,,,,,,,,,,,,,,,,,,,,,0,9,9,9,1,Objects,makeupcompact,Stimuli/Objects/makeupcompact/P139103_hero.jpg,,,,,,,,,,,,,,,,,,,,,,,,,,,,,,,,,,,,,,,,,,,,,,,,,,,,,,,,,,,,,,,,,,,,,,,,,,,,,
,,,,,,,,5f378e1794a0ef2151ccf4bf,23,M,R,2020-09-11_11h19.32.425,Hybrid_Search_Task,2020.2.3,Win32,60,,,,,,,,,,,,,,,,,,,,,,,,,,,,,,,,,,,,,,,,,,,,,,,,,,,,,,,,,,,,,,,,,,,,,,,,,,,,,,,,0,10,10,1,1,Objects,makeupcompact,Stimuli/Objects/makeupcompact/262597_fpx.jpg,,,,,,,,,,,,,,,,,,,,,,,,,,,,,,,,,,,,,,,,,,,,,,,,,,,,,,,,,,,,,,,,,,,,,,,,,,,,,
,,,,,,,,5f378e1794a0ef2151ccf4bf,23,M,R,2020-09-11_11h19.32.425,Hybrid_Search_Task,2020.2.3,Win32,60,,,,,,,,,,,,,,,,,,,,,,,,,,,,,,,,,,,,,,,,,,,,,,,,,,,,,,,,,,,,,,,,,,,,,,,,,,,,,,,,0,11,11,4,1,Objects,makeupcompact,Stimuli/Objects/makeupcompact/31YfapjS3TL._AA250_.jpg,,,,,,,,,,,,,,,,,,,,,,,,,,,,,,,,,,,,,,,,,,,,,,,,,,,,,,,,,,,,,,,,,,,,,,,,,,,,,
,,,,,,,,5f378e1794a0ef2151ccf4bf,23,M,R,2020-09-11_11h19.32.425,Hybrid_Search_Task,2020.2.3,Win32,60,,,,,,,,,,,,,,,,,,,,,,,,,,,,,,,,,,,,,,,,,,,,,,,,,,,,,,,,,,,,,,,,,,,,,,,,,,,,,,,,0,12,12,0,1,Objects,makeupcompact,Stimuli/Objects/makeupcompact/05086681402.jpg,,,,,,,,,,,,,,,,,,,,,,,,,,,,,,,,,,,,,,,,,,,,,,,,,,,,,,,,,,,,,,,,,,,,,,,,,,,,,
,,,,,,,,5f378e1794a0ef2151ccf4bf,23,M,R,2020-09-11_11h19.32.425,Hybrid_Search_Task,2020.2.3,Win32,60,,,,,,,,,,,,,,,,,,,,,,,,,,,,,,,,,,,,,,,,,,,,,,,,,,,,,,,,,,,,,,,,,,,,,,,,,,,,,,,,0,13,13,14,1,Objects,makeupcompact,Stimuli/Objects/makeupcompact/P190250_hero.jpg,,,,,,,,,,,,,,,,,,,,,,,,,,,,,,,,,,,,,,,,,,,,,,,,,,,,,,,,,,,,,,,,,,,,,,,,,,,,,
,,,,,,,,5f378e1794a0ef2151ccf4bf,23,M,R,2020-09-11_11h19.32.425,Hybrid_Search_Task,2020.2.3,Win32,60,,,,,,,,,,,,,,,,,,,,,,,,,,,,,,,,,,,,,,,,,,,,,,,,,,,,,,,,,,,,,,,,,,,,,,,,,,,,,,,,0,14,14,15,1,Objects,makeupcompact,Stimuli/Objects/makeupcompact/P190255_hero.jpg,,,,,,,,,,,,,,,,,,,,,,,,,,,,,,,,,,,,,,,,,,,,,,,,,,,,,,,,,,,,,,,,,,,,,,,,,,,,,
,,,,,,,,5f378e1794a0ef2151ccf4bf,23,M,R,2020-09-11_11h19.32.425,Hybrid_Search_Task,2020.2.3,Win32,60,,,,,,,,,,,,,,,,,,,,,,,,,,,,,,,,,,,,,,,,,,,,,,,,,,,,,,,,,,,,,,,,,,,,,,,,,,,,,,,,0,15,15,12,1,Objects,makeupcompact,Stimuli/Objects/makeupcompact/P187133_hero.jpg,,,,,,,,,,,,,,,,,,,,,,,,,,,,,,,,,,,,,,,,,,,,,,,,,,,,,,,,,,,,,,,,,,,,,,,,,,,,,
,,,,,,,,5f378e1794a0ef2151ccf4bf,23,M,R,2020-09-11_11h19.32.425,Hybrid_Search_Task,2020.2.3,Win32,60,,,,,,,,,,,,,,,,,,,,,,,,,,,,,,,,,,,,,,,,,,,,,,,,,,,,,,,,,,,,,,,,,,,,,,,,,,,,,,,,0,16,16,13,1,Objects,makeupcompact,Stimuli/Objects/makeupcompact/P189207_hero.jpg,,,,,,,,,,,,,,,,,,,,,,,,,,,,,,,,,,,,,,,,,,,,,,,,,,,,,,,,,,,,,,,,,,,,,,,,,,,,,
,,,,,,,,5f378e1794a0ef2151ccf4bf,23,M,R,2020-09-11_11h19.32.425,Hybrid_Search_Task,2020.2.3,Win32,60,,,,,,,,,,,,,,,,,,,,,,,,,,,,,,,,,,,,,,,,,,,,,,,,,,,,,,,,,,,,,,,,,,,,,,,,,,,,,,,,,,,,,,,,0,1,1,22,1,StimList/makeupcompact.xls,,,,,,,,,,,,,,,,,,,,,,,,,,,,,,,,,,,,,,,,,,,,,,,,,,,,,,,,,,,,,,,,,,,,,,,
,,,,,,,,5f378e1794a0ef2151ccf4bf,23,M,R,2020-09-11_11h19.32.425,Hybrid_Search_Task,2020.2.3,Win32,60,,,,,,,,,,,,,,,,,,,,,,,,,,,,,,,,,,,,,,,,,,,,,,,,,,,,,,,,,,,,,,,,,,,,,,,,,,,,,,,,0,0,0,5,1,Objects,camcorder,Stimuli/Objects/camcorder/camcorderf235f333.jpg,,,,,,,,,,,,,,,,,,,,,,,,,,,,,,,,,,,,,,,,,,,,,,,,,,,,,,,,,,,,,,,,,,,,,,,,,,,,,
,,,,,,,,5f378e1794a0ef2151ccf4bf,23,M,R,2020-09-11_11h19.32.425,Hybrid_Search_Task,2020.2.3,Win32,60,,,,,,,,,,,,,,,,,,,,,,,,,,,,,,,,,,,,,,,,,,,,,,,,,,,,,,,,,,,,,,,,,,,,,,,,,,,,,,,,0,1,1,2,1,Objects,camcorder,Stimuli/Objects/camcorder/aiptek_pocketdv_8900_camcorder.jpg,,,,,,,,,,,,,,,,,,,,,,,,,,,,,,,,,,,,,,,,,,,,,,,,,,,,,,,,,,,,,,,,,,,,,,,,,,,,,
,,,,,,,,5f378e1794a0ef2151ccf4bf,23,M,R,2020-09-11_11h19.32.425,Hybrid_Search_Task,2020.2.3,Win32,60,,,,,,,,,,,,,,,,,,,,,,,,,,,,,,,,,,,,,,,,,,,,,,,,,,,,,,,,,,,,,,,,,,,,,,,,,,,,,,,,0,2,2,13,1,Objects,camcorder,Stimuli/Objects/camcorder/sony-HDR-HC3-camcorder.jpg,,,,,,,,,,,,,,,,,,,,,,,,,,,,,,,,,,,,,,,,,,,,,,,,,,,,,,,,,,,,,,,,,,,,,,,,,,,,,
,,,,,,,,5f378e1794a0ef2151ccf4bf,23,M,R,2020-09-11_11h19.32.425,Hybrid_Search_Task,2020.2.3,Win32,60,,,,,,,,,,,,,,,,,,,,,,,,,,,,,,,,,,,,,,,,,,,,,,,,,,,,,,,,,,,,,,,,,,,,,,,,,,,,,,,,0,3,3,3,1,Objects,camcorder,Stimuli/Objects/camcorder/b2c_l_scd6550.jpg,,,,,,,,,,,,,,,,,,,,,,,,,,,,,,,,,,,,,,,,,,,,,,,,,,,,,,,,,,,,,,,,,,,,,,,,,,,,,
,,,,,,,,5f378e1794a0ef2151ccf4bf,23,M,R,2020-09-11_11h19.32.425,Hybrid_Search_Task,2020.2.3,Win32,60,,,,,,,,,,,,,,,,,,,,,,,,,,,,,,,,,,,,,,,,,,,,,,,,,,,,,,,,,,,,,,,,,,,,,,,,,,,,,,,,0,4,4,6,1,Objects,camcorder,Stimuli/Objects/camcorder/Canon TX1[3].jpg,,,,,,,,,,,,,,,,,,,,,,,,,,,,,,,,,,,,,,,,,,,,,,,,,,,,,,,,,,,,,,,,,,,,,,,,,,,,,
,,,,,,,,5f378e1794a0ef2151ccf4bf,23,M,R,2020-09-11_11h19.32.425,Hybrid_Search_Task,2020.2.3,Win32,60,,,,,,,,,,,,,,,,,,,,,,,,,,,,,,,,,,,,,,,,,,,,,,,,,,,,,,,,,,,,,,,,,,,,,,,,,,,,,,,,0,5,5,7,1,Objects,camcorder,Stimuli/Objects/camcorder/canonhv10camcorder.jpg,,,,,,,,,,,,,,,,,,,,,,,,,,,,,,,,,,,,,,,,,,,,,,,,,,,,,,,,,,,,,,,,,,,,,,,,,,,,,
,,,,,,,,5f378e1794a0ef2151ccf4bf,23,M,R,2020-09-11_11h19.32.425,Hybrid_Search_Task,2020.2.3,Win32,60,,,,,,,,,,,,,,,,,,,,,,,,,,,,,,,,,,,,,,,,,,,,,,,,,,,,,,,,,,,,,,,,,,,,,,,,,,,,,,,,0,6,6,12,1,Objects,camcorder,Stimuli/Objects/camcorder/Sony-DCR-SR1000-camcorder[4]1.jpg,,,,,,,,,,,,,,,,,,,,,,,,,,,,,,,,,,,,,,,,,,,,,,,,,,,,,,,,,,,,,,,,,,,,,,,,,,,,,
,,,,,,,,5f378e1794a0ef2151ccf4bf,23,M,R,2020-09-11_11h19.32.425,Hybrid_Search_Task,2020.2.3,Win32,60,,,,,,,,,,,,,,,,,,,,,,,,,,,,,,,,,,,,,,,,,,,,,,,,,,,,,,,,,,,,,,,,,,,,,,,,,,,,,,,,0,7,7,14,1,Objects,camcorder,Stimuli/Objects/camcorder/sonytrv218_418a.jpg,,,,,,,,,,,,,,,,,,,,,,,,,,,,,,,,,,,,,,,,,,,,,,,,,,,,,,,,,,,,,,,,,,,,,,,,,,,,,
,,,,,,,,5f378e1794a0ef2151ccf4bf,23,M,R,2020-09-11_11h19.32.425,Hybrid_Search_Task,2020.2.3,Win32,60,,,,,,,,,,,,,,,,,,,,,,,,,,,,,,,,,,,,,,,,,,,,,,,,,,,,,,,,,,,,,,,,,,,,,,,,,,,,,,,,0,8,8,10,1,Objects,camcorder,Stimuli/Objects/camcorder/HV20_three_quarter_door_open_highres[2].jpg,,,,,,,,,,,,,,,,,,,,,,,,,,,,,,,,,,,,,,,,,,,,,,,,,,,,,,,,,,,,,,,,,,,,,,,,,,,,,
,,,,,,,,5f378e1794a0ef2151ccf4bf,23,M,R,2020-09-11_11h19.32.425,Hybrid_Search_Task,2020.2.3,Win32,60,,,,,,,,,,,,,,,,,,,,,,,,,,,,,,,,,,,,,,,,,,,,,,,,,,,,,,,,,,,,,,,,,,,,,,,,,,,,,,,,0,9,9,1,1,Objects,camcorder,Stimuli/Objects/camcorder/152.jpg,,,,,,,,,,,,,,,,,,,,,,,,,,,,,,,,,,,,,,,,,,,,,,,,,,,,,,,,,,,,,,,,,,,,,,,,,,,,,
,,,,,,,,5f378e1794a0ef2151ccf4bf,23,M,R,2020-09-11_11h19.32.425,Hybrid_Search_Task,2020.2.3,Win32,60,,,,,,,,,,,,,,,,,,,,,,,,,,,,,,,,,,,,,,,,,,,,,,,,,,,,,,,,,,,,,,,,,,,,,,,,,,,,,,,,0,10,10,8,1,Objects,camcorder,Stimuli/Objects/camcorder/HDRFX1 Camcorder.jpg,,,,,,,,,,,,,,,,,,,,,,,,,,,,,,,,,,,,,,,,,,,,,,,,,,,,,,,,,,,,,,,,,,,,,,,,,,,,,
,,,,,,,,5f378e1794a0ef2151ccf4bf,23,M,R,2020-09-11_11h19.32.425,Hybrid_Search_Task,2020.2.3,Win32,60,,,,,,,,,,,,,,,,,,,,,,,,,,,,,,,,,,,,,,,,,,,,,,,,,,,,,,,,,,,,,,,,,,,,,,,,,,,,,,,,0,11,11,9,1,Objects,camcorder,Stimuli/Objects/camcorder/HDRFX7[2].jpg,,,,,,,,,,,,,,,,,,,,,,,,,,,,,,,,,,,,,,,,,,,,,,,,,,,,,,,,,,,,,,,,,,,,,,,,,,,,,
,,,,,,,,5f378e1794a0ef2151ccf4bf,23,M,R,2020-09-11_11h19.32.425,Hybrid_Search_Task,2020.2.3,Win32,60,,,,,,,,,,,,,,,,,,,,,,,,,,,,,,,,,,,,,,,,,,,,,,,,,,,,,,,,,,,,,,,,,,,,,,,,,,,,,,,,0,12,12,15,1,Objects,camcorder,Stimuli/Objects/camcorder/Style-DV3.jpg,,,,,,,,,,,,,,,,,,,,,,,,,,,,,,,,,,,,,,,,,,,,,,,,,,,,,,,,,,,,,,,,,,,,,,,,,,,,,
,,,,,,,,5f378e1794a0ef2151ccf4bf,23,M,R,2020-09-11_11h19.32.425,Hybrid_Search_Task,2020.2.3,Win32,60,,,,,,,,,,,,,,,,,,,,,,,,,,,,,,,,,,,,,,,,,,,,,,,,,,,,,,,,,,,,,,,,,,,,,,,,,,,,,,,,0,13,13,0,1,Objects,camcorder,Stimuli/Objects/camcorder/00000102404-SonyDCRTRV280Digital8camcorder-large.jpg,,,,,,,,,,,,,,,,,,,,,,,,,,,,,,,,,,,,,,,,,,,,,,,,,,,,,,,,,,,,,,,,,,,,,,,,,,,,,
,,,,,,,,5f378e1794a0ef2151ccf4bf,23,M,R,2020-09-11_11h19.32.425,Hybrid_Search_Task,2020.2.3,Win32,60,,,,,,,,,,,,,,,,,,,,,,,,,,,,,,,,,,,,,,,,,,,,,,,,,,,,,,,,,,,,,,,,,,,,,,,,,,,,,,,,0,14,14,16,1,Objects,camcorder,Stimuli/Objects/camcorder/VPC-CA6[5].jpg,,,,,,,,,,,,,,,,,,,,,,,,,,,,,,,,,,,,,,,,,,,,,,,,,,,,,,,,,,,,,,,,,,,,,,,,,,,,,
,,,,,,,,5f378e1794a0ef2151ccf4bf,23,M,R,2020-09-11_11h19.32.425,Hybrid_Search_Task,2020.2.3,Win32,60,,,,,,,,,,,,,,,,,,,,,,,,,,,,,,,,,,,,,,,,,,,,,,,,,,,,,,,,,,,,,,,,,,,,,,,,,,,,,,,,0,15,15,4,1,Objects,camcorder,Stimuli/Objects/camcorder/Camcorder.jpg,,,,,,,,,,,,,,,,,,,,,,,,,,,,,,,,,,,,,,,,,,,,,,,,,,,,,,,,,,,,,,,,,,,,,,,,,,,,,
,,,,,,,,5f378e1794a0ef2151ccf4bf,23,M,R,2020-09-11_11h19.32.425,Hybrid_Search_Task,2020.2.3,Win32,60,,,,,,,,,,,,,,,,,,,,,,,,,,,,,,,,,,,,,,,,,,,,,,,,,,,,,,,,,,,,,,,,,,,,,,,,,,,,,,,,0,16,16,11,1,Objects,camcorder,Stimuli/Objects/camcorder/JVC_GZ-HD7_vanity_350[2]1.jpg,,,,,,,,,,,,,,,,,,,,,,,,,,,,,,,,,,,,,,,,,,,,,,,,,,,,,,,,,,,,,,,,,,,,,,,,,,,,,
,,,,,,,,5f378e1794a0ef2151ccf4bf,23,M,R,2020-09-11_11h19.32.425,Hybrid_Search_Task,2020.2.3,Win32,60,,,,,,,,,,,,,,,,,,,,,,,,,,,,,,,,,,,,,,,,,,,,,,,,,,,,,,,,,,,,,,,,,,,,,,,,,,,,,,,,,,,,,,,,0,2,2,10,1,StimList/camcorder.xls,,,,,,,,,,,,,,,,,,,,,,,,,,,,,,,,,,,,,,,,,,,,,,,,,,,,,,,,,,,,,,,,,,,,,,,
,,,,,,,,5f378e1794a0ef2151ccf4bf,23,M,R,2020-09-11_11h19.32.425,Hybrid_Search_Task,2020.2.3,Win32,60,,,,,,,,,,,,,,,,,,,,,,,,,,,,,,,,,,,,,,,,,,,,,,,,,,,,,,,,,,,,,,,,,,,,,,,,,,,,,,,,0,0,0,0,1,Objects,flashlight,Stimuli/Objects/flashlight/11900.jpg,,,,,,,,,,,,,,,,,,,,,,,,,,,,,,,,,,,,,,,,,,,,,,,,,,,,,,,,,,,,,,,,,,,,,,,,,,,,,
,,,,,,,,5f378e1794a0ef2151ccf4bf,23,M,R,2020-09-11_11h19.32.425,Hybrid_Search_Task,2020.2.3,Win32,60,,,,,,,,,,,,,,,,,,,,,,,,,,,,,,,,,,,,,,,,,,,,,,,,,,,,,,,,,,,,,,,,,,,,,,,,,,,,,,,,0,1,1,3,1,Objects,flashlight,Stimuli/Objects/flashlight/AV-9 No Battery Flashlight.jpg,,,,,,,,,,,,,,,,,,,,,,,,,,,,,,,,,,,,,,,,,,,,,,,,,,,,,,,,,,,,,,,,,,,,,,,,,,,,,
,,,,,,,,5f378e1794a0ef2151ccf4bf,23,M,R,2020-09-11_11h19.32.425,Hybrid_Search_Task,2020.2.3,Win32,60,,,,,,,,,,,,,,,,,,,,,,,,,,,,,,,,,,,,,,,,,,,,,,,,,,,,,,,,,,,,,,,,,,,,,,,,,,,,,,,,0,2,2,15,1,Objects,flashlight,Stimuli/Objects/flashlight/Streamlight-Flashlight-LED-4AA-Yellow-Case-w-7-Blue-LEDs-B0000WUNSC-L.jpg,,,,,,,,,,,,,,,,,,,,,,,,,,,,,,,,,,,,,,,,,,,,,,,,,,,,,,,,,,,,,,,,,,,,,,,,,,,,,
,,,,,,,,5f378e1794a0ef2151ccf4bf,23,M,R,2020-09-11_11h19.32.425,Hybrid_Search_Task,2020.2.3,Win32,60,,,,,,,,,,,,,,,,,,,,,,,,,,,,,,,,,,,,,,,,,,,,,,,,,,,,,,,,,,,,,,,,,,,,,,,,,,,,,,,,0,3,3,6,1,Objects,flashlight,Stimuli/Objects/flashlight/freeplay-xray-wind-up-led-flashlight.jpg,,,,,,,,,,,,,,,,,,,,,,,,,,,,,,,,,,,,,,,,,,,,,,,,,,,,,,,,,,,,,,,,,,,,,,,,,,,,,
,,,,,,,,5f378e1794a0ef2151ccf4bf,23,M,R,2020-09-11_11h19.32.425,Hybrid_Search_Task,2020.2.3,Win32,60,,,,,,,,,,,,,,,,,,,,,,,,,,,,,,,,,,,,,,,,,,,,,,,,,,,,,,,,,,,,,,,,,,,,,,,,,,,,,,,,0,4,4,11,1,Objects,flashlight,Stimuli/Objects/flashlight/new08.jpg,,,,,,,,,,,,,,,,,,,,,,,,,,,,,,,,,,,,,,,,,,,,,,,,,,,,,,,,,,,,,,,,,,,,,,,,,,,,,
,,,,,,,,5f378e1794a0ef2151ccf4bf,23,M,R,2020-09-11_11h19.32.425,Hybrid_Search_Task,2020.2.3,Win32,60,,,,,,,,,,,,,,,,,,,,,,,,,,,,,,,,,,,,,,,,,,,,,,,,,,,,,,,,,,,,,,,,,,,,,,,,,,,,,,,,0,5,5,8,1,Objects,flashlight,Stimuli/Objects/flashlight/new04.jpg,,,,,,,,,,,,,,,,,,,,,,,,,,,,,,,,,,,,,,,,,,,,,,,,,,,,,,,,,,,,,,,,,,,,,,,,,,,,,
,,,,,,,,5f378e1794a0ef2151ccf4bf,23,M,R,2020-09-11_11h19.32.425,Hybrid_Search_Task,2020.2.3,Win32,60,,,,,,,,,,,,,,,,,,,,,,,,,,,,,,,,,,,,,,,,,,,,,,,,,,,,,,,,,,,,,,,,,,,,,,,,,,,,,,,,0,6,6,14,1,Objects,flashlight,Stimuli/Objects/flashlight/Streamlight-71001-Jr-Flashlight-W-batteries-black-B00018A3CG-L.jpg,,,,,,,,,,,,,,,,,,,,,,,,,,,,,,,,,,,,,,,,,,,,,,,,,,,,,,,,,,,,,,,,,,,,,,,,,,,,,
,,,,,,,,5f378e1794a0ef2151ccf4bf,23,M,R,2020-09-11_11h19.32.425,Hybrid_Search_Task,2020.2.3,Win32,60,,,,,,,,,,,,,,,,,,,,,,,,,,,,,,,,,,,,,,,,,,,,,,,,,,,,,,,,,,,,,,,,,,,,,,,,,,,,,,,,0,7,7,16,1,Objects,flashlight,Stimuli/Objects/flashlight/Streamlight-Stinger-Rechargeable-Flashlight-with-Charger-Black-75014-B00008BFSI-L.jpg,,,,,,,,,,,,,,,,,,,,,,,,,,,,,,,,,,,,,,,,,,,,,,,,,,,,,,,,,,,,,,,,,,,,,,,,,,,,,
,,,,,,,,5f378e1794a0ef2151ccf4bf,23,M,R,2020-09-11_11h19.32.425,Hybrid_Search_Task,2020.2.3,Win32,60,,,,,,,,,,,,,,,,,,,,,,,,,,,,,,,,,,,,,,,,,,,,,,,,,,,,,,,,,,,,,,,,,,,,,,,,,,,,,,,,0,8,8,13,1,Objects,flashlight,Stimuli/Objects/flashlight/Small-Dynamo-Flashlight-With-Hand-Crank-Back-up-Power-B000AMKUH6-L.jpg,,,,,,,,,,,,,,,,,,,,,,,,,,,,,,,,,,,,,,,,,,,,,,,,,,,,,,,,,,,,,,,,,,,,,,,,,,,,,
,,,,,,,,5f378e1794a0ef2151ccf4bf,23,M,R,2020-09-11_11h19.32.425,Hybrid_Search_Task,2020.2.3,Win32,60,,,,,,,,,,,,,,,,,,,,,,,,,,,,,,,,,,,,,,,,,,,,,,,,,,,,,,,,,,,,,,,,,,,,,,,,,,,,,,,,0,9,9,7,1,Objects,flashlight,Stimuli/Objects/flashlight/Graphite3D.jpg,,,,,,,,,,,,,,,,,,,,,,,,,,,,,,,,,,,,,,,,,,,,,,,,,,,,,,,,,,,,,,,,,,,,,,,,,,,,,
,,,,,,,,5f378e1794a0ef2151ccf4bf,23,M,R,2020-09-11_11h19.32.425,Hybrid_Search_Task,2020.2.3,Win32,60,,,,,,,,,,,,,,,,,,,,,,,,,,,,,,,,,,,,,,,,,,,,,,,,,,,,,,,,,,,,,,,,,,,,,,,,,,,,,,,,0,10,10,4,1,Objects,flashlight,Stimuli/Objects/flashlight/Flashlight.jpg,,,,,,,,,,,,,,,,,,,,,,,,,,,,,,,,,,,,,,,,,,,,,,,,,,,,,,,,,,,,,,,,,,,,,,,,,,,,,
,,,,,,,,5f378e1794a0ef2151ccf4bf,23,M,R,2020-09-11_11h19.32.425,Hybrid_Search_Task,2020.2.3,Win32,60,,,,,,,,,,,,,,,,,,,,,,,,,,,,,,,,,,,,,,,,,,,,,,,,,,,,,,,,,,,,,,,,,,,,,,,,,,,,,,,,0,11,11,9,1,Objects,flashlight,Stimuli/Objects/flashlight/new05.jpg,,,,,,,,,,,,,,,,,,,,,,,,,,,,,,,,,,,,,,,,,,,,,,,,,,,,,,,,,,,,,,,,,,,,,,,,,,,,,
,,,,,,,,5f378e1794a0ef2151ccf4bf,23,M,R,2020-09-11_11h19.32.425,Hybrid_Search_Task,2020.2.3,Win32,60,,,,,,,,,,,,,,,,,,,,,,,,,,,,,,,,,,,,,,,,,,,,,,,,,,,,,,,,,,,,,,,,,,,,,,,,,,,,,,,,0,12,12,12,1,Objects,flashlight,Stimuli/Objects/flashlight/sl_tasklight_2l3w.jpg,,,,,,,,,,,,,,,,,,,,,,,,,,,,,,,,,,,,,,,,,,,,,,,,,,,,,,,,,,,,,,,,,,,,,,,,,,,,,
,,,,,,,,5f378e1794a0ef2151ccf4bf,23,M,R,2020-09-11_11h19.32.425,Hybrid_Search_Task,2020.2.3,Win32,60,,,,,,,,,,,,,,,,,,,,,,,,,,,,,,,,,,,,,,,,,,,,,,,,,,,,,,,,,,,,,,,,,,,,,,,,,,,,,,,,0,13,13,1,1,Objects,flashlight,Stimuli/Objects/flashlight/834784_sk_lg.jpg,,,,,,,,,,,,,,,,,,,,,,,,,,,,,,,,,,,,,,,,,,,,,,,,,,,,,,,,,,,,,,,,,,,,,,,,,,,,,
,,,,,,,,5f378e1794a0ef2151ccf4bf,23,M,R,2020-09-11_11h19.32.425,Hybrid_Search_Task,2020.2.3,Win32,60,,,,,,,,,,,,,,,,,,,,,,,,,,,,,,,,,,,,,,,,,,,,,,,,,,,,,,,,,,,,,,,,,,,,,,,,,,,,,,,,0,14,14,10,1,Objects,flashlight,Stimuli/Objects/flashlight/new06.jpg,,,,,,,,,,,,,,,,,,,,,,,,,,,,,,,,,,,,,,,,,,,,,,,,,,,,,,,,,,,,,,,,,,,,,,,,,,,,,
,,,,,,,,5f378e1794a0ef2151ccf4bf,23,M,R,2020-09-11_11h19.32.425,Hybrid_Search_Task,2020.2.3,Win32,60,,,,,,,,,,,,,,,,,,,,,,,,,,,,,,,,,,,,,,,,,,,,,,,,,,,,,,,,,,,,,,,,,,,,,,,,,,,,,,,,0,15,15,5,1,Objects,flashlight,Stimuli/Objects/flashlight/freeplay-jonta-flashlight.jpg,,,,,,,,,,,,,,,,,,,,,,,,,,,,,,,,,,,,,,,,,,,,,,,,,,,,,,,,,,,,,,,,,,,,,,,,,,,,,
,,,,,,,,5f378e1794a0ef2151ccf4bf,23,M,R,2020-09-11_11h19.32.425,Hybrid_Search_Task,2020.2.3,Win32,60,,,,,,,,,,,,,,,,,,,,,,,,,,,,,,,,,,,,,,,,,,,,,,,,,,,,,,,,,,,,,,,,,,,,,,,,,,,,,,,,0,16,16,2,1,Objects,flashlight,Stimuli/Objects/flashlight/834808_sk_lg.jpg,,,,,,,,,,,,,,,,,,,,,,,,,,,,,,,,,,,,,,,,,,,,,,,,,,,,,,,,,,,,,,,,,,,,,,,,,,,,,
,,,,,,,,5f378e1794a0ef2151ccf4bf,23,M,R,2020-09-11_11h19.32.425,Hybrid_Search_Task,2020.2.3,Win32,60,,,,,,,,,,,,,,,,,,,,,,,,,,,,,,,,,,,,,,,,,,,,,,,,,,,,,,,,,,,,,,,,,,,,,,,,,,,,,,,,,,,,,,,,0,3,3,14,1,StimList/flashlight.xls,,,,,,,,,,,,,,,,,,,,,,,,,,,,,,,,,,,,,,,,,,,,,,,,,,,,,,,,,,,,,,,,,,,,,,,
,,,,,,,,5f378e1794a0ef2151ccf4bf,23,M,R,2020-09-11_11h19.32.425,Hybrid_Search_Task,2020.2.3,Win32,60,,,,,,,,,,,,,,,,,,,,,,,,,,,,,,,,,,,,,,,,,,,,,,,,,,,,,,,,,,,,,,,,,,,,,,,,,,,,,,,,0,0,0,0,1,Objects,boot,Stimuli/Objects/boot/15860736.thl.jpg,,,,,,,,,,,,,,,,,,,,,,,,,,,,,,,,,,,,,,,,,,,,,,,,,,,,,,,,,,,,,,,,,,,,,,,,,,,,,
,,,,,,,,5f378e1794a0ef2151ccf4bf,23,M,R,2020-09-11_11h19.32.425,Hybrid_Search_Task,2020.2.3,Win32,60,,,,,,,,,,,,,,,,,,,,,,,,,,,,,,,,,,,,,,,,,,,,,,,,,,,,,,,,,,,,,,,,,,,,,,,,,,,,,,,,0,1,1,6,1,Objects,boot,Stimuli/Objects/boot/ABOOTS26.jpg,,,,,,,,,,,,,,,,,,,,,,,,,,,,,,,,,,,,,,,,,,,,,,,,,,,,,,,,,,,,,,,,,,,,,,,,,,,,,
,,,,,,,,5f378e1794a0ef2151ccf4bf,23,M,R,2020-09-11_11h19.32.425,Hybrid_Search_Task,2020.2.3,Win32,60,,,,,,,,,,,,,,,,,,,,,,,,,,,,,,,,,,,,,,,,,,,,,,,,,,,,,,,,,,,,,,,,,,,,,,,,,,,,,,,,0,2,2,16,1,Objects,boot,Stimuli/Objects/boot/Women_s_Boot.jpg,,,,,,,,,,,,,,,,,,,,,,,,,,,,,,,,,,,,,,,,,,,,,,,,,,,,,,,,,,,,,,,,,,,,,,,,,,,,,
,,,,,,,,5f378e1794a0ef2151ccf4bf,23,M,R,2020-09-11_11h19.32.425,Hybrid_Search_Task,2020.2.3,Win32,60,,,,,,,,,,,,,,,,,,,,,,,,,,,,,,,,,,,,,,,,,,,,,,,,,,,,,,,,,,,,,,,,,,,,,,,,,,,,,,,,0,3,3,4,1,Objects,boot,Stimuli/Objects/boot/34936580.thl.jpg,,,,,,,,,,,,,,,,,,,,,,,,,,,,,,,,,,,,,,,,,,,,,,,,,,,,,,,,,,,,,,,,,,,,,,,,,,,,,
,,,,,,,,5f378e1794a0ef2151ccf4bf,23,M,R,2020-09-11_11h19.32.425,Hybrid_Search_Task,2020.2.3,Win32,60,,,,,,,,,,,,,,,,,,,,,,,,,,,,,,,,,,,,,,,,,,,,,,,,,,,,,,,,,,,,,,,,,,,,,,,,,,,,,,,,0,4,4,2,1,Objects,boot,Stimuli/Objects/boot/22978099.thl.jpg,,,,,,,,,,,,,,,,,,,,,,,,,,,,,,,,,,,,,,,,,,,,,,,,,,,,,,,,,,,,,,,,,,,,,,,,,,,,,
,,,,,,,,5f378e1794a0ef2151ccf4bf,23,M,R,2020-09-11_11h19.32.425,Hybrid_Search_Task,2020.2.3,Win32,60,,,,,,,,,,,,,,,,,,,,,,,,,,,,,,,,,,,,,,,,,,,,,,,,,,,,,,,,,,,,,,,,,,,,,,,,,,,,,,,,0,5,5,13,1,Objects,boot,Stimuli/Objects/boot/clothes_9.jpg,,,,,,,,,,,,,,,,,,,,,,,,,,,,,,,,,,,,,,,,,,,,,,,,,,,,,,,,,,,,,,,,,,,,,,,,,,,,,
,,,,,,,,5f378e1794a0ef2151ccf4bf,23,M,R,2020-09-11_11h19.32.425,Hybrid_Search_Task,2020.2.3,Win32,60,,,,,,,,,,,,,,,,,,,,,,,,,,,,,,,,,,,,,,,,,,,,,,,,,,,,,,,,,,,,,,,,,,,,,,,,,,,,,,,,0,6,6,12,1,Objects,boot,Stimuli/Objects/boot/clothes_8.jpg,,,,,,,,,,,,,,,,,,,,,,,,,,,,,,,,,,,,,,,,,,,,,,,,,,,,,,,,,,,,,,,,,,,,,,,,,,,,,
,,,,,,,,5f378e1794a0ef2151ccf4bf,23,M,R,2020-09-11_11h19.32.425,Hybrid_Search_Task,2020.2.3,Win32,60,,,,,,,,,,,,,,,,,,,,,,,,,,,,,,,,,,,,,,,,,,,,,,,,,,,,,,,,,,,,,,,,,,,,,,,,,,,,,,,,0,7,7,10,1,Objects,boot,Stimuli/Objects/boot/british_army_surplus_jungle_boot_300.jpg,,,,,,,,,,,,,,,,,,,,,,,,,,,,,,,,,,,,,,,,,,,,,,,,,,,,,,,,,,,,,,,,,,,,,,,,,,,,,
,,,,,,,,5f378e1794a0ef2151ccf4bf,23,M,R,2020-09-11_11h19.32.425,Hybrid_Search_Task,2020.2.3,Win32,60,,,,,,,,,,,,,,,,,,,,,,,,,,,,,,,,,,,,,,,,,,,,,,,,,,,,,,,,,,,,,,,,,,,,,,,,,,,,,,,,0,8,8,5,1,Objects,boot,Stimuli/Objects/boot/35311865.thl.jpg,,,,,,,,,,,,,,,,,,,,,,,,,,,,,,,,,,,,,,,,,,,,,,,,,,,,,,,,,,,,,,,,,,,,,,,,,,,,,
,,,,,,,,5f378e1794a0ef2151ccf4bf,23,M,R,2020-09-11_11h19.32.425,Hybrid_Search_Task,2020.2.3,Win32,60,,,,,,,,,,,,,,,,,,,,,,,,,,,,,,,,,,,,,,,,,,,,,,,,,,,,,,,,,,,,,,,,,,,,,,,,,,,,,,,,0,9,9,3,1,Objects,boot,Stimuli/Objects/boot/26424364.thl.jpg,,,,,,,,,,,,,,,,,,,,,,,,,,,,,,,,,,,,,,,,,,,,,,,,,,,,,,,,,,,,,,,,,,,,,,,,,,,,,
,,,,,,,,5f378e1794a0ef2151ccf4bf,23,M,R,2020-09-11_11h19.32.425,Hybrid_Search_Task,2020.2.3,Win32,60,,,,,,,,,,,,,,,,,,,,,,,,,,,,,,,,,,,,,,,,,,,,,,,,,,,,,,,,,,,,,,,,,,,,,,,,,,,,,,,,0,10,10,8,1,Objects,boot,Stimuli/Objects/boot/ARUBBOOT8.jpg,,,,,,,,,,,,,,,,,,,,,,,,,,,,,,,,,,,,,,,,,,,,,,,,,,,,,,,,,,,,,,,,,,,,,,,,,,,,,
,,,,,,,,5f378e1794a0ef2151ccf4bf,23,M,R,2020-09-11_11h19.32.425,Hybrid_Search_Task,2020.2.3,Win32,60,,,,,,,,,,,,,,,,,,,,,,,,,,,,,,,,,,,,,,,,,,,,,,,,,,,,,,,,,,,,,,,,,,,,,,,,,,,,,,,,0,11,11,9,1,Objects,boot,Stimuli/Objects/boot/BOOT.jpg,,,,,,,,,,,,,,,,,,,,,,,,,,,,,,,,,,,,,,,,,,,,,,,,,,,,,,,,,,,,,,,,,,,,,,,,,,,,,
,,,,,,,,5f378e1794a0ef2151ccf4bf,23,M,R,2020-09-11_11h19.32.425,Hybrid_Search_Task,2020.2.3,Win32,60,,,,,,,,,,,,,,,,,,,,,,,,,,,,,,,,,,,,,,,,,,,,,,,,,,,,,,,,,,,,,,,,,,,,,,,,,,,,,,,,0,12,12,11,1,Objects,boot,Stimuli/Objects/boot/clothes_7.jpg,,,,,,,,,,,,,,,,,,,,,,,,,,,,,,,,,,,,,,,,,,,,,,,,,,,,,,,,,,,,,,,,,,,,,,,,,,,,,
,,,,,,,,5f378e1794a0ef2151ccf4bf,23,M,R,2020-09-11_11h19.32.425,Hybrid_Search_Task,2020.2.3,Win32,60,,,,,,,,,,,,,,,,,,,,,,,,,,,,,,,,,,,,,,,,,,,,,,,,,,,,,,,,,,,,,,,,,,,,,,,,,,,,,,,,0,13,13,1,1,Objects,boot,Stimuli/Objects/boot/15860784.thl.jpg,,,,,,,,,,,,,,,,,,,,,,,,,,,,,,,,,,,,,,,,,,,,,,,,,,,,,,,,,,,,,,,,,,,,,,,,,,,,,
,,,,,,,,5f378e1794a0ef2151ccf4bf,23,M,R,2020-09-11_11h19.32.425,Hybrid_Search_Task,2020.2.3,Win32,60,,,,,,,,,,,,,,,,,,,,,,,,,,,,,,,,,,,,,,,,,,,,,,,,,,,,,,,,,,,,,,,,,,,,,,,,,,,,,,,,0,14,14,7,1,Objects,boot,Stimuli/Objects/boot/ACABOOTS2.jpg,,,,,,,,,,,,,,,,,,,,,,,,,,,,,,,,,,,,,,,,,,,,,,,,,,,,,,,,,,,,,,,,,,,,,,,,,,,,,
,,,,,,,,5f378e1794a0ef2151ccf4bf,23,M,R,2020-09-11_11h19.32.425,Hybrid_Search_Task,2020.2.3,Win32,60,,,,,,,,,,,,,,,,,,,,,,,,,,,,,,,,,,,,,,,,,,,,,,,,,,,,,,,,,,,,,,,,,,,,,,,,,,,,,,,,0,15,15,15,1,Objects,boot,Stimuli/Objects/boot/tecnica_denise-boot_oker_ocra.jpg,,,,,,,,,,,,,,,,,,,,,,,,,,,,,,,,,,,,,,,,,,,,,,,,,,,,,,,,,,,,,,,,,,,,,,,,,,,,,
,,,,,,,,5f378e1794a0ef2151ccf4bf,23,M,R,2020-09-11_11h19.32.425,Hybrid_Search_Task,2020.2.3,Win32,60,,,,,,,,,,,,,,,,,,,,,,,,,,,,,,,,,,,,,,,,,,,,,,,,,,,,,,,,,,,,,,,,,,,,,,,,,,,,,,,,0,16,16,14,1,Objects,boot,Stimuli/Objects/boot/jungle_boot.jpg,,,,,,,,,,,,,,,,,,,,,,,,,,,,,,,,,,,,,,,,,,,,,,,,,,,,,,,,,,,,,,,,,,,,,,,,,,,,,
,,,,,,,,5f378e1794a0ef2151ccf4bf,23,M,R,2020-09-11_11h19.32.425,Hybrid_Search_Task,2020.2.3,Win32,60,,,,,,,,,,,,,,,,,,,,,,,,,,,,,,,,,,,,,,,,,,,,,,,,,,,,,,,,,,,,,,,,,,,,,,,,,,,,,,,,,,,,,,,,0,4,4,6,1,StimList/boot.xls,,,,,,,,,,,,,,,,,,,,,,,,,,,,,,,,,,,,,,,,,,,,,,,,,,,,,,,,,,,,,,,,,,,,,,,
,,,,,,,,5f378e1794a0ef2151ccf4bf,23,M,R,2020-09-11_11h19.32.425,Hybrid_Search_Task,2020.2.3,Win32,60,,,,,,,,,,,,,,,,,,,,,,,,,,,,,,,,,,,,,,,,,,,,,,,,,,,,,,,,,,,,,,,,,,,,,,,,,,,,,,,,0,0,0,9,1,Objects,pitcher,Stimuli/Objects/pitcher/Apitcher57.jpg,,,,,,,,,,,,,,,,,,,,,,,,,,,,,,,,,,,,,,,,,,,,,,,,,,,,,,,,,,,,,,,,,,,,,,,,,,,,,
,,,,,,,,5f378e1794a0ef2151ccf4bf,23,M,R,2020-09-11_11h19.32.425,Hybrid_Search_Task,2020.2.3,Win32,60,,,,,,,,,,,,,,,,,,,,,,,,,,,,,,,,,,,,,,,,,,,,,,,,,,,,,,,,,,,,,,,,,,,,,,,,,,,,,,,,0,1,1,14,1,Objects,pitcher,Stimuli/Objects/pitcher/BH lg iced pitcher.jpg,,,,,,,,,,,,,,,,,,,,,,,,,,,,,,,,,,,,,,,,,,,,,,,,,,,,,,,,,,,,,,,,,,,,,,,,,,,,,
,,,,,,,,5f378e1794a0ef2151ccf4bf,23,M,R,2020-09-11_11h19.32.425,Hybrid_Search_Task,2020.2.3,Win32,60,,,,,,,,,,,,,,,,,,,,,,,,,,,,,,,,,,,,,,,,,,,,,,,,,,,,,,,,,,,,,,,,,,,,,,,,,,,,,,,,0,2,2,12,1,Objects,pitcher,Stimuli/Objects/pitcher/APITCHER8.jpg,,,,,,,,,,,,,,,,,,,,,,,,,,,,,,,,,,,,,,,,,,,,,,,,,,,,,,,,,,,,,,,,,,,,,,,,,,,,,
,,,,,,,,5f378e1794a0ef2151ccf4bf,23,M,R,2020-09-11_11h19.32.425,Hybrid_Search_Task,2020.2.3,Win32,60,,,,,,,,,,,,,,,,,,,,,,,,,,,,,,,,,,,,,,,,,,,,,,,,,,,,,,,,,,,,,,,,,,,,,,,,,,,,,,,,0,3,3,16,1,Objects,pitcher,Stimuli/Objects/pitcher/water pitcher 8.jpg,,,,,,,,,,,,,,,,,,,,,,,,,,,,,,,,,,,,,,,,,,,,,,,,,,,,,,,,,,,,,,,,,,,,,,,,,,,,,
,,,,,,,,5f378e1794a0ef2151ccf4bf,23,M,R,2020-09-11_11h19.32.425,Hybrid_Search_Task,2020.2.3,Win32,60,,,,,,,,,,,,,,,,,,,,,,,,,,,,,,,,,,,,,,,,,,,,,,,,,,,,,,,,,,,,,,,,,,,,,,,,,,,,,,,,0,4,4,15,1,Objects,pitcher,Stimuli/Objects/pitcher/Pitcher.jpg,,,,,,,,,,,,,,,,,,,,,,,,,,,,,,,,,,,,,,,,,,,,,,,,,,,,,,,,,,,,,,,,,,,,,,,,,,,,,
,,,,,,,,5f378e1794a0ef2151ccf4bf,23,M,R,2020-09-11_11h19.32.425,Hybrid_Search_Task,2020.2.3,Win32,60,,,,,,,,,,,,,,,,,,,,,,,,,,,,,,,,,,,,,,,,,,,,,,,,,,,,,,,,,,,,,,,,,,,,,,,,,,,,,,,,0,5,5,3,1,Objects,pitcher,Stimuli/Objects/pitcher/Apitcher18.jpg,,,,,,,,,,,,,,,,,,,,,,,,,,,,,,,,,,,,,,,,,,,,,,,,,,,,,,,,,,,,,,,,,,,,,,,,,,,,,
,,,,,,,,5f378e1794a0ef2151ccf4bf,23,M,R,2020-09-11_11h19.32.425,Hybrid_Search_Task,2020.2.3,Win32,60,,,,,,,,,,,,,,,,,,,,,,,,,,,,,,,,,,,,,,,,,,,,,,,,,,,,,,,,,,,,,,,,,,,,,,,,,,,,,,,,0,6,6,7,1,Objects,pitcher,Stimuli/Objects/pitcher/Apitcher46.jpg,,,,,,,,,,,,,,,,,,,,,,,,,,,,,,,,,,,,,,,,,,,,,,,,,,,,,,,,,,,,,,,,,,,,,,,,,,,,,
,,,,,,,,5f378e1794a0ef2151ccf4bf,23,M,R,2020-09-11_11h19.32.425,Hybrid_Search_Task,2020.2.3,Win32,60,,,,,,,,,,,,,,,,,,,,,,,,,,,,,,,,,,,,,,,,,,,,,,,,,,,,,,,,,,,,,,,,,,,,,,,,,,,,,,,,0,7,7,10,1,Objects,pitcher,Stimuli/Objects/pitcher/APITCHER6.jpg,,,,,,,,,,,,,,,,,,,,,,,,,,,,,,,,,,,,,,,,,,,,,,,,,,,,,,,,,,,,,,,,,,,,,,,,,,,,,
,,,,,,,,5f378e1794a0ef2151ccf4bf,23,M,R,2020-09-11_11h19.32.425,Hybrid_Search_Task,2020.2.3,Win32,60,,,,,,,,,,,,,,,,,,,,,,,,,,,,,,,,,,,,,,,,,,,,,,,,,,,,,,,,,,,,,,,,,,,,,,,,,,,,,,,,0,8,8,4,1,Objects,pitcher,Stimuli/Objects/pitcher/Apitcher19.jpg,,,,,,,,,,,,,,,,,,,,,,,,,,,,,,,,,,,,,,,,,,,,,,,,,,,,,,,,,,,,,,,,,,,,,,,,,,,,,
,,,,,,,,5f378e1794a0ef2151ccf4bf,23,M,R,2020-09-11_11h19.32.425,Hybrid_Search_Task,2020.2.3,Win32,60,,,,,,,,,,,,,,,,,,,,,,,,,,,,,,,,,,,,,,,,,,,,,,,,,,,,,,,,,,,,,,,,,,,,,,,,,,,,,,,,0,9,9,1,1,Objects,pitcher,Stimuli/Objects/pitcher/Apitcher10.jpg,,,,,,,,,,,,,,,,,,,,,,,,,,,,,,,,,,,,,,,,,,,,,,,,,,,,,,,,,,,,,,,,,,,,,,,,,,,,,
,,,,,,,,5f378e1794a0ef2151ccf4bf,23,M,R,2020-09-11_11h19.32.425,Hybrid_Search_Task,2020.2.3,Win32,60,,,,,,,,,,,,,,,,,,,,,,,,,,,,,,,,,,,,,,,,,,,,,,,,,,,,,,,,,,,,,,,,,,,,,,,,,,,,,,,,0,10,10,6,1,Objects,pitcher,Stimuli/Objects/pitcher/Apitcher29.jpg,,,,,,,,,,,,,,,,,,,,,,,,,,,,,,,,,,,,,,,,,,,,,,,,,,,,,,,,,,,,,,,,,,,,,,,,,,,,,
,,,,,,,,5f378e1794a0ef2151ccf4bf,23,M,R,2020-09-11_11h19.32.425,Hybrid_Search_Task,2020.2.3,Win32,60,,,,,,,,,,,,,,,,,,,,,,,,,,,,,,,,,,,,,,,,,,,,,,,,,,,,,,,,,,,,,,,,,,,,,,,,,,,,,,,,0,11,11,0,1,Objects,pitcher,Stimuli/Objects/pitcher/APITCHER.jpg,,,,,,,,,,,,,,,,,,,,,,,,,,,,,,,,,,,,,,,,,,,,,,,,,,,,,,,,,,,,,,,,,,,,,,,,,,,,,
,,,,,,,,5f378e1794a0ef2151ccf4bf,23,M,R,2020-09-11_11h19.32.425,Hybrid_Search_Task,2020.2.3,Win32,60,,,,,,,,,,,,,,,,,,,,,,,,,,,,,,,,,,,,,,,,,,,,,,,,,,,,,,,,,,,,,,,,,,,,,,,,,,,,,,,,0,12,12,13,1,Objects,pitcher,Stimuli/Objects/pitcher/Awaterpitcher.jpg,,,,,,,,,,,,,,,,,,,,,,,,,,,,,,,,,,,,,,,,,,,,,,,,,,,,,,,,,,,,,,,,,,,,,,,,,,,,,
,,,,,,,,5f378e1794a0ef2151ccf4bf,23,M,R,2020-09-11_11h19.32.425,Hybrid_Search_Task,2020.2.3,Win32,60,,,,,,,,,,,,,,,,,,,,,,,,,,,,,,,,,,,,,,,,,,,,,,,,,,,,,,,,,,,,,,,,,,,,,,,,,,,,,,,,0,13,13,2,1,Objects,pitcher,Stimuli/Objects/pitcher/Apitcher12.jpg,,,,,,,,,,,,,,,,,,,,,,,,,,,,,,,,,,,,,,,,,,,,,,,,,,,,,,,,,,,,,,,,,,,,,,,,,,,,,
,,,,,,,,5f378e1794a0ef2151ccf4bf,23,M,R,2020-09-11_11h19.32.425,Hybrid_Search_Task,2020.2.3,Win32,60,,,,,,,,,,,,,,,,,,,,,,,,,,,,,,,,,,,,,,,,,,,,,,,,,,,,,,,,,,,,,,,,,,,,,,,,,,,,,,,,0,14,14,5,1,Objects,pitcher,Stimuli/Objects/pitcher/Apitcher25.jpg,,,,,,,,,,,,,,,,,,,,,,,,,,,,,,,,,,,,,,,,,,,,,,,,,,,,,,,,,,,,,,,,,,,,,,,,,,,,,
,,,,,,,,5f378e1794a0ef2151ccf4bf,23,M,R,2020-09-11_11h19.32.425,Hybrid_Search_Task,2020.2.3,Win32,60,,,,,,,,,,,,,,,,,,,,,,,,,,,,,,,,,,,,,,,,,,,,,,,,,,,,,,,,,,,,,,,,,,,,,,,,,,,,,,,,0,15,15,8,1,Objects,pitcher,Stimuli/Objects/pitcher/Apitcher54.jpg,,,,,,,,,,,,,,,,,,,,,,,,,,,,,,,,,,,,,,,,,,,,,,,,,,,,,,,,,,,,,,,,,,,,,,,,,,,,,
,,,,,,,,5f378e1794a0ef2151ccf4bf,23,M,R,2020-09-11_11h19.32.425,Hybrid_Search_Task,2020.2.3,Win32,60,,,,,,,,,,,,,,,,,,,,,,,,,,,,,,,,,,,,,,,,,,,,,,,,,,,,,,,,,,,,,,,,,,,,,,,,,,,,,,,,0,16,16,11,1,Objects,pitcher,Stimuli/Objects/pitcher/Apitcher66.jpg,,,,,,,,,,,,,,,,,,,,,,,,,,,,,,,,,,,,,,,,,,,,,,,,,,,,,,,,,,,,,,,,,,,,,,,,,,,,,
,,,,,,,,5f378e1794a0ef2151ccf4bf,23,M,R,2020-09-11_11h19.32.425,Hybrid_Search_Task,2020.2.3,Win32,60,,,,,,,,,,,,,,,,,,,,,,,,,,,,,,,,,,,,,,,,,,,,,,,,,,,,,,,,,,,,,,,,,,,,,,,,,,,,,,,,,,,,,,,,0,5,5,26,1,StimList/pitcher.xls,,,,,,,,,,,,,,,,,,,,,,,,,,,,,,,,,,,,,,,,,,,,,,,,,,,,,,,,,,,,,,,,,,,,,,,
,,,,,,,,5f378e1794a0ef2151ccf4bf,23,M,R,2020-09-11_11h19.32.425,Hybrid_Search_Task,2020.2.3,Win32,60,,,,,,,,,,,,,,,,,,,,,,,,,,,,,,,,,,,,,,,,,,,,,,,,,,,,,,,,,,,,,,,,,,,,,,,,,,,,,,,,0,0,0,3,1,Objects,hairbrush,Stimuli/Objects/hairbrush/B0006BKG7U.01-A1NDBS7YGOPBD6._SCLZZZZZZZ_SS500_.jpg,,,,,,,,,,,,,,,,,,,,,,,,,,,,,,,,,,,,,,,,,,,,,,,,,,,,,,,,,,,,,,,,,,,,,,,,,,,,,
,,,,,,,,5f378e1794a0ef2151ccf4bf,23,M,R,2020-09-11_11h19.32.425,Hybrid_Search_Task,2020.2.3,Win32,60,,,,,,,,,,,,,,,,,,,,,,,,,,,,,,,,,,,,,,,,,,,,,,,,,,,,,,,,,,,,,,,,,,,,,,,,,,,,,,,,0,1,1,5,1,Objects,hairbrush,Stimuli/Objects/hairbrush/B000A8045S.01-A3MUP0TQW88EYV._SCLZZZZZZZ_V23466783_SS500_.jpg,,,,,,,,,,,,,,,,,,,,,,,,,,,,,,,,,,,,,,,,,,,,,,,,,,,,,,,,,,,,,,,,,,,,,,,,,,,,,
,,,,,,,,5f378e1794a0ef2151ccf4bf,23,M,R,2020-09-11_11h19.32.425,Hybrid_Search_Task,2020.2.3,Win32,60,,,,,,,,,,,,,,,,,,,,,,,,,,,,,,,,,,,,,,,,,,,,,,,,,,,,,,,,,,,,,,,,,,,,,,,,,,,,,,,,0,2,2,6,1,Objects,hairbrush,Stimuli/Objects/hairbrush/Hairbrush.jpg,,,,,,,,,,,,,,,,,,,,,,,,,,,,,,,,,,,,,,,,,,,,,,,,,,,,,,,,,,,,,,,,,,,,,,,,,,,,,
,,,,,,,,5f378e1794a0ef2151ccf4bf,23,M,R,2020-09-11_11h19.32.425,Hybrid_Search_Task,2020.2.3,Win32,60,,,,,,,,,,,,,,,,,,,,,,,,,,,,,,,,,,,,,,,,,,,,,,,,,,,,,,,,,,,,,,,,,,,,,,,,,,,,,,,,0,3,3,1,1,Objects,hairbrush,Stimuli/Objects/hairbrush/Ahairbrush18.jpg,,,,,,,,,,,,,,,,,,,,,,,,,,,,,,,,,,,,,,,,,,,,,,,,,,,,,,,,,,,,,,,,,,,,,,,,,,,,,
,,,,,,,,5f378e1794a0ef2151ccf4bf,23,M,R,2020-09-11_11h19.32.425,Hybrid_Search_Task,2020.2.3,Win32,60,,,,,,,,,,,,,,,,,,,,,,,,,,,,,,,,,,,,,,,,,,,,,,,,,,,,,,,,,,,,,,,,,,,,,,,,,,,,,,,,0,4,4,11,1,Objects,hairbrush,Stimuli/Objects/hairbrush/hairbrush24.jpg,,,,,,,,,,,,,,,,,,,,,,,,,,,,,,,,,,,,,,,,,,,,,,,,,,,,,,,,,,,,,,,,,,,,,,,,,,,,,
,,,,,,,,5f378e1794a0ef2151ccf4bf,23,M,R,2020-09-11_11h19.32.425,Hybrid_Search_Task,2020.2.3,Win32,60,,,,,,,,,,,,,,,,,,,,,,,,,,,,,,,,,,,,,,,,,,,,,,,,,,,,,,,,,,,,,,,,,,,,,,,,,,,,,,,,0,5,5,2,1,Objects,hairbrush,Stimuli/Objects/hairbrush/Ahairbrush9.jpg,,,,,,,,,,,,,,,,,,,,,,,,,,,,,,,,,,,,,,,,,,,,,,,,,,,,,,,,,,,,,,,,,,,,,,,,,,,,,
,,,,,,,,5f378e1794a0ef2151ccf4bf,23,M,R,2020-09-11_11h19.32.425,Hybrid_Search_Task,2020.2.3,Win32,60,,,,,,,,,,,,,,,,,,,,,,,,,,,,,,,,,,,,,,,,,,,,,,,,,,,,,,,,,,,,,,,,,,,,,,,,,,,,,,,,0,6,6,8,1,Objects,hairbrush,Stimuli/Objects/hairbrush/hairbrush14.jpg,,,,,,,,,,,,,,,,,,,,,,,,,,,,,,,,,,,,,,,,,,,,,,,,,,,,,,,,,,,,,,,,,,,,,,,,,,,,,
,,,,,,,,5f378e1794a0ef2151ccf4bf,23,M,R,2020-09-11_11h19.32.425,Hybrid_Search_Task,2020.2.3,Win32,60,,,,,,,,,,,,,,,,,,,,,,,,,,,,,,,,,,,,,,,,,,,,,,,,,,,,,,,,,,,,,,,,,,,,,,,,,,,,,,,,0,7,7,9,1,Objects,hairbrush,Stimuli/Objects/hairbrush/hairbrush15.jpg,,,,,,,,,,,,,,,,,,,,,,,,,,,,,,,,,,,,,,,,,,,,,,,,,,,,,,,,,,,,,,,,,,,,,,,,,,,,,
,,,,,,,,5f378e1794a0ef2151ccf4bf,23,M,R,2020-09-11_11h19.32.425,Hybrid_Search_Task,2020.2.3,Win32,60,,,,,,,,,,,,,,,,,,,,,,,,,,,,,,,,,,,,,,,,,,,,,,,,,,,,,,,,,,,,,,,,,,,,,,,,,,,,,,,,0,8,8,7,1,Objects,hairbrush,Stimuli/Objects/hairbrush/hairbrush12.jpg,,,,,,,,,,,,,,,,,,,,,,,,,,,,,,,,,,,,,,,,,,,,,,,,,,,,,,,,,,,,,,,,,,,,,,,,,,,,,
,,,,,,,,5f378e1794a0ef2151ccf4bf,23,M,R,2020-09-11_11h19.32.425,Hybrid_Search_Task,2020.2.3,Win32,60,,,,,,,,,,,,,,,,,,,,,,,,,,,,,,,,,,,,,,,,,,,,,,,,,,,,,,,,,,,,,,,,,,,,,,,,,,,,,,,,0,9,9,15,1,Objects,hairbrush,Stimuli/Objects/hairbrush/hairbrush7.jpg,,,,,,,,,,,,,,,,,,,,,,,,,,,,,,,,,,,,,,,,,,,,,,,,,,,,,,,,,,,,,,,,,,,,,,,,,,,,,
,,,,,,,,5f378e1794a0ef2151ccf4bf,23,M,R,2020-09-11_11h19.32.425,Hybrid_Search_Task,2020.2.3,Win32,60,,,,,,,,,,,,,,,,,,,,,,,,,,,,,,,,,,,,,,,,,,,,,,,,,,,,,,,,,,,,,,,,,,,,,,,,,,,,,,,,0,10,10,13,1,Objects,hairbrush,Stimuli/Objects/hairbrush/hairbrush34.jpg,,,,,,,,,,,,,,,,,,,,,,,,,,,,,,,,,,,,,,,,,,,,,,,,,,,,,,,,,,,,,,,,,,,,,,,,,,,,,
,,,,,,,,5f378e1794a0ef2151ccf4bf,23,M,R,2020-09-11_11h19.32.425,Hybrid_Search_Task,2020.2.3,Win32,60,,,,,,,,,,,,,,,,,,,,,,,,,,,,,,,,,,,,,,,,,,,,,,,,,,,,,,,,,,,,,,,,,,,,,,,,,,,,,,,,0,11,11,14,1,Objects,hairbrush,Stimuli/Objects/hairbrush/hairbrush47.jpg,,,,,,,,,,,,,,,,,,,,,,,,,,,,,,,,,,,,,,,,,,,,,,,,,,,,,,,,,,,,,,,,,,,,,,,,,,,,,
,,,,,,,,5f378e1794a0ef2151ccf4bf,23,M,R,2020-09-11_11h19.32.425,Hybrid_Search_Task,2020.2.3,Win32,60,,,,,,,,,,,,,,,,,,,,,,,,,,,,,,,,,,,,,,,,,,,,,,,,,,,,,,,,,,,,,,,,,,,,,,,,,,,,,,,,0,12,12,4,1,Objects,hairbrush,Stimuli/Objects/hairbrush/B000A7Y1X0.01-A3MUP0TQW88EYV._SCLZZZZZZZ_V23462953_SS500_.jpg,,,,,,,,,,,,,,,,,,,,,,,,,,,,,,,,,,,,,,,,,,,,,,,,,,,,,,,,,,,,,,,,,,,,,,,,,,,,,
,,,,,,,,5f378e1794a0ef2151ccf4bf,23,M,R,2020-09-11_11h19.32.425,Hybrid_Search_Task,2020.2.3,Win32,60,,,,,,,,,,,,,,,,,,,,,,,,,,,,,,,,,,,,,,,,,,,,,,,,,,,,,,,,,,,,,,,,,,,,,,,,,,,,,,,,0,13,13,0,1,Objects,hairbrush,Stimuli/Objects/hairbrush/300.jpg,,,,,,,,,,,,,,,,,,,,,,,,,,,,,,,,,,,,,,,,,,,,,,,,,,,,,,,,,,,,,,,,,,,,,,,,,,,,,
,,,,,,,,5f378e1794a0ef2151ccf4bf,23,M,R,2020-09-11_11h19.32.425,Hybrid_Search_Task,2020.2.3,Win32,60,,,,,,,,,,,,,,,,,,,,,,,,,,,,,,,,,,,,,,,,,,,,,,,,,,,,,,,,,,,,,,,,,,,,,,,,,,,,,,,,0,14,14,10,1,Objects,hairbrush,Stimuli/Objects/hairbrush/hairbrush17.jpg,,,,,,,,,,,,,,,,,,,,,,,,,,,,,,,,,,,,,,,,,,,,,,,,,,,,,,,,,,,,,,,,,,,,,,,,,,,,,
,,,,,,,,5f378e1794a0ef2151ccf4bf,23,M,R,2020-09-11_11h19.32.425,Hybrid_Search_Task,2020.2.3,Win32,60,,,,,,,,,,,,,,,,,,,,,,,,,,,,,,,,,,,,,,,,,,,,,,,,,,,,,,,,,,,,,,,,,,,,,,,,,,,,,,,,0,15,15,12,1,Objects,hairbrush,Stimuli/Objects/hairbrush/hairbrush30.jpg,,,,,,,,,,,,,,,,,,,,,,,,,,,,,,,,,,,,,,,,,,,,,,,,,,,,,,,,,,,,,,,,,,,,,,,,,,,,,
,,,,,,,,5f378e1794a0ef2151ccf4bf,23,M,R,2020-09-11_11h19.32.425,Hybrid_Search_Task,2020.2.3,Win32,60,,,,,,,,,,,,,,,,,,,,,,,,,,,,,,,,,,,,,,,,,,,,,,,,,,,,,,,,,,,,,,,,,,,,,,,,,,,,,,,,0,16,16,16,1,Objects,hairbrush,Stimuli/Objects/hairbrush/serenity2000-canada_1903_2658146.jpg,,,,,,,,,,,,,,,,,,,,,,,,,,,,,,,,,,,,,,,,,,,,,,,,,,,,,,,,,,,,,,,,,,,,,,,,,,,,,
,,,,,,,,5f378e1794a0ef2151ccf4bf,23,M,R,2020-09-11_11h19.32.425,Hybrid_Search_Task,2020.2.3,Win32,60,,,,,,,,,,,,,,,,,,,,,,,,,,,,,,,,,,,,,,,,,,,,,,,,,,,,,,,,,,,,,,,,,,,,,,,,,,,,,,,,,,,,,,,,0,6,6,17,1,StimList/hairbrush.xls,,,,,,,,,,,,,,,,,,,,,,,,,,,,,,,,,,,,,,,,,,,,,,,,,,,,,,,,,,,,,,,,,,,,,,,
,,,,,,,,5f378e1794a0ef2151ccf4bf,23,M,R,2020-09-11_11h19.32.425,Hybrid_Search_Task,2020.2.3,Win32,60,,,,,,,,,,,,,,,,,,,,,,,,,,,,,,,,,,,,,,,,,,,,,,,,,,,,,,,,,,,,,,,,,,,,,,,,,,,,,,,,0,0,0,5,1,Objects,calculator,Stimuli/Objects/calculator/22903496.thl.jpg,,,,,,,,,,,,,,,,,,,,,,,,,,,,,,,,,,,,,,,,,,,,,,,,,,,,,,,,,,,,,,,,,,,,,,,,,,,,,
,,,,,,,,5f378e1794a0ef2151ccf4bf,23,M,R,2020-09-11_11h19.32.425,Hybrid_Search_Task,2020.2.3,Win32,60,,,,,,,,,,,,,,,,,,,,,,,,,,,,,,,,,,,,,,,,,,,,,,,,,,,,,,,,,,,,,,,,,,,,,,,,,,,,,,,,0,1,1,0,1,Objects,calculator,Stimuli/Objects/calculator/22829064.thl.jpg,,,,,,,,,,,,,,,,,,,,,,,,,,,,,,,,,,,,,,,,,,,,,,,,,,,,,,,,,,,,,,,,,,,,,,,,,,,,,
,,,,,,,,5f378e1794a0ef2151ccf4bf,23,M,R,2020-09-11_11h19.32.425,Hybrid_Search_Task,2020.2.3,Win32,60,,,,,,,,,,,,,,,,,,,,,,,,,,,,,,,,,,,,,,,,,,,,,,,,,,,,,,,,,,,,,,,,,,,,,,,,,,,,,,,,0,2,2,8,1,Objects,calculator,Stimuli/Objects/calculator/26377657.thl.jpg,,,,,,,,,,,,,,,,,,,,,,,,,,,,,,,,,,,,,,,,,,,,,,,,,,,,,,,,,,,,,,,,,,,,,,,,,,,,,
,,,,,,,,5f378e1794a0ef2151ccf4bf,23,M,R,2020-09-11_11h19.32.425,Hybrid_Search_Task,2020.2.3,Win32,60,,,,,,,,,,,,,,,,,,,,,,,,,,,,,,,,,,,,,,,,,,,,,,,,,,,,,,,,,,,,,,,,,,,,,,,,,,,,,,,,0,3,3,13,1,Objects,calculator,Stimuli/Objects/calculator/Acalculator3.jpg,,,,,,,,,,,,,,,,,,,,,,,,,,,,,,,,,,,,,,,,,,,,,,,,,,,,,,,,,,,,,,,,,,,,,,,,,,,,,
,,,,,,,,5f378e1794a0ef2151ccf4bf,23,M,R,2020-09-11_11h19.32.425,Hybrid_Search_Task,2020.2.3,Win32,60,,,,,,,,,,,,,,,,,,,,,,,,,,,,,,,,,,,,,,,,,,,,,,,,,,,,,,,,,,,,,,,,,,,,,,,,,,,,,,,,0,4,4,3,1,Objects,calculator,Stimuli/Objects/calculator/22829340.thl.jpg,,,,,,,,,,,,,,,,,,,,,,,,,,,,,,,,,,,,,,,,,,,,,,,,,,,,,,,,,,,,,,,,,,,,,,,,,,,,,
,,,,,,,,5f378e1794a0ef2151ccf4bf,23,M,R,2020-09-11_11h19.32.425,Hybrid_Search_Task,2020.2.3,Win32,60,,,,,,,,,,,,,,,,,,,,,,,,,,,,,,,,,,,,,,,,,,,,,,,,,,,,,,,,,,,,,,,,,,,,,,,,,,,,,,,,0,5,5,15,1,Objects,calculator,Stimuli/Objects/calculator/Aelectronicor.jpg,,,,,,,,,,,,,,,,,,,,,,,,,,,,,,,,,,,,,,,,,,,,,,,,,,,,,,,,,,,,,,,,,,,,,,,,,,,,,
,,,,,,,,5f378e1794a0ef2151ccf4bf,23,M,R,2020-09-11_11h19.32.425,Hybrid_Search_Task,2020.2.3,Win32,60,,,,,,,,,,,,,,,,,,,,,,,,,,,,,,,,,,,,,,,,,,,,,,,,,,,,,,,,,,,,,,,,,,,,,,,,,,,,,,,,0,6,6,4,1,Objects,calculator,Stimuli/Objects/calculator/22829508.thl.jpg,,,,,,,,,,,,,,,,,,,,,,,,,,,,,,,,,,,,,,,,,,,,,,,,,,,,,,,,,,,,,,,,,,,,,,,,,,,,,
,,,,,,,,5f378e1794a0ef2151ccf4bf,23,M,R,2020-09-11_11h19.32.425,Hybrid_Search_Task,2020.2.3,Win32,60,,,,,,,,,,,,,,,,,,,,,,,,,,,,,,,,,,,,,,,,,,,,,,,,,,,,,,,,,,,,,,,,,,,,,,,,,,,,,,,,0,7,7,10,1,Objects,calculator,Stimuli/Objects/calculator/26444301.thl.jpg,,,,,,,,,,,,,,,,,,,,,,,,,,,,,,,,,,,,,,,,,,,,,,,,,,,,,,,,,,,,,,,,,,,,,,,,,,,,,
,,,,,,,,5f378e1794a0ef2151ccf4bf,23,M,R,2020-09-11_11h19.32.425,Hybrid_Search_Task,2020.2.3,Win32,60,,,,,,,,,,,,,,,,,,,,,,,,,,,,,,,,,,,,,,,,,,,,,,,,,,,,,,,,,,,,,,,,,,,,,,,,,,,,,,,,0,8,8,12,1,Objects,calculator,Stimuli/Objects/calculator/Acalculator10.jpg,,,,,,,,,,,,,,,,,,,,,,,,,,,,,,,,,,,,,,,,,,,,,,,,,,,,,,,,,,,,,,,,,,,,,,,,,,,,,
,,,,,,,,5f378e1794a0ef2151ccf4bf,23,M,R,2020-09-11_11h19.32.425,Hybrid_Search_Task,2020.2.3,Win32,60,,,,,,,,,,,,,,,,,,,,,,,,,,,,,,,,,,,,,,,,,,,,,,,,,,,,,,,,,,,,,,,,,,,,,,,,,,,,,,,,0,9,9,2,1,Objects,calculator,Stimuli/Objects/calculator/22829316.thl.jpg,,,,,,,,,,,,,,,,,,,,,,,,,,,,,,,,,,,,,,,,,,,,,,,,,,,,,,,,,,,,,,,,,,,,,,,,,,,,,
,,,,,,,,5f378e1794a0ef2151ccf4bf,23,M,R,2020-09-11_11h19.32.425,Hybrid_Search_Task,2020.2.3,Win32,60,,,,,,,,,,,,,,,,,,,,,,,,,,,,,,,,,,,,,,,,,,,,,,,,,,,,,,,,,,,,,,,,,,,,,,,,,,,,,,,,0,10,10,6,1,Objects,calculator,Stimuli/Objects/calculator/26377654.thl.jpg,,,,,,,,,,,,,,,,,,,,,,,,,,,,,,,,,,,,,,,,,,,,,,,,,,,,,,,,,,,,,,,,,,,,,,,,,,,,,
,,,,,,,,5f378e1794a0ef2151ccf4bf,23,M,R,2020-09-11_11h19.32.425,Hybrid_Search_Task,2020.2.3,Win32,60,,,,,,,,,,,,,,,,,,,,,,,,,,,,,,,,,,,,,,,,,,,,,,,,,,,,,,,,,,,,,,,,,,,,,,,,,,,,,,,,0,11,11,14,1,Objects,calculator,Stimuli/Objects/calculator/Acalculatorso.jpg,,,,,,,,,,,,,,,,,,,,,,,,,,,,,,,,,,,,,,,,,,,,,,,,,,,,,,,,,,,,,,,,,,,,,,,,,,,,,
,,,,,,,,5f378e1794a0ef2151ccf4bf,23,M,R,2020-09-11_11h19.32.425,Hybrid_Search_Task,2020.2.3,Win32,60,,,,,,,,,,,,,,,,,,,,,,,,,,,,,,,,,,,,,,,,,,,,,,,,,,,,,,,,,,,,,,,,,,,,,,,,,,,,,,,,0,12,12,7,1,Objects,calculator,Stimuli/Objects/calculator/26377655.thl.jpg,,,,,,,,,,,,,,,,,,,,,,,,,,,,,,,,,,,,,,,,,,,,,,,,,,,,,,,,,,,,,,,,,,,,,,,,,,,,,
,,,,,,,,5f378e1794a0ef2151ccf4bf,23,M,R,2020-09-11_11h19.32.425,Hybrid_Search_Task,2020.2.3,Win32,60,,,,,,,,,,,,,,,,,,,,,,,,,,,,,,,,,,,,,,,,,,,,,,,,,,,,,,,,,,,,,,,,,,,,,,,,,,,,,,,,0,13,13,11,1,Objects,calculator,Stimuli/Objects/calculator/ACALCUL23.jpg,,,,,,,,,,,,,,,,,,,,,,,,,,,,,,,,,,,,,,,,,,,,,,,,,,,,,,,,,,,,,,,,,,,,,,,,,,,,,
,,,,,,,,5f378e1794a0ef2151ccf4bf,23,M,R,2020-09-11_11h19.32.425,Hybrid_Search_Task,2020.2.3,Win32,60,,,,,,,,,,,,,,,,,,,,,,,,,,,,,,,,,,,,,,,,,,,,,,,,,,,,,,,,,,,,,,,,,,,,,,,,,,,,,,,,0,14,14,1,1,Objects,calculator,Stimuli/Objects/calculator/22829184.thl.jpg,,,,,,,,,,,,,,,,,,,,,,,,,,,,,,,,,,,,,,,,,,,,,,,,,,,,,,,,,,,,,,,,,,,,,,,,,,,,,
,,,,,,,,5f378e1794a0ef2151ccf4bf,23,M,R,2020-09-11_11h19.32.425,Hybrid_Search_Task,2020.2.3,Win32,60,,,,,,,,,,,,,,,,,,,,,,,,,,,,,,,,,,,,,,,,,,,,,,,,,,,,,,,,,,,,,,,,,,,,,,,,,,,,,,,,0,15,15,9,1,Objects,calculator,Stimuli/Objects/calculator/26444243.thl.jpg,,,,,,,,,,,,,,,,,,,,,,,,,,,,,,,,,,,,,,,,,,,,,,,,,,,,,,,,,,,,,,,,,,,,,,,,,,,,,
,,,,,,,,5f378e1794a0ef2151ccf4bf,23,M,R,2020-09-11_11h19.32.425,Hybrid_Search_Task,2020.2.3,Win32,60,,,,,,,,,,,,,,,,,,,,,,,,,,,,,,,,,,,,,,,,,,,,,,,,,,,,,,,,,,,,,,,,,,,,,,,,,,,,,,,,0,16,16,16,1,Objects,calculator,Stimuli/Objects/calculator/Measuring_Tape_with_Calculator_and_Memo_Pad.jpg,,,,,,,,,,,,,,,,,,,,,,,,,,,,,,,,,,,,,,,,,,,,,,,,,,,,,,,,,,,,,,,,,,,,,,,,,,,,,
,,,,,,,,5f378e1794a0ef2151ccf4bf,23,M,R,2020-09-11_11h19.32.425,Hybrid_Search_Task,2020.2.3,Win32,60,,,,,,,,,,,,,,,,,,,,,,,,,,,,,,,,,,,,,,,,,,,,,,,,,,,,,,,,,,,,,,,,,,,,,,,,,,,,,,,,,,,,,,,,0,7,7,9,1,StimList/calculator.xls,,,,,,,,,,,,,,,,,,,,,,,,,,,,,,,,,,,,,,,,,,,,,,,,,,,,,,,,,,,,,,,,,,,,,,,
,,,,,,,,5f378e1794a0ef2151ccf4bf,23,M,R,2020-09-11_11h19.32.425,Hybrid_Search_Task,2020.2.3,Win32,60,,,,,,,,,,,,,,,,,,,,,,,,,,,,,,,,,,,,,,,,,,,,,,,,,,,,,,,,,,,,,,,,,,,,,,,,,,,,,,,,0,0,0,7,1,Objects,guitar,Stimuli/Objects/guitar/AELCGUI14.jpg,,,,,,,,,,,,,,,,,,,,,,,,,,,,,,,,,,,,,,,,,,,,,,,,,,,,,,,,,,,,,,,,,,,,,,,,,,,,,
,,,,,,,,5f378e1794a0ef2151ccf4bf,23,M,R,2020-09-11_11h19.32.425,Hybrid_Search_Task,2020.2.3,Win32,60,,,,,,,,,,,,,,,,,,,,,,,,,,,,,,,,,,,,,,,,,,,,,,,,,,,,,,,,,,,,,,,,,,,,,,,,,,,,,,,,0,1,1,14,1,Objects,guitar,Stimuli/Objects/guitar/epiphone-jack-casady-electric-rock-bass-guitar.jpg,,,,,,,,,,,,,,,,,,,,,,,,,,,,,,,,,,,,,,,,,,,,,,,,,,,,,,,,,,,,,,,,,,,,,,,,,,,,,
,,,,,,,,5f378e1794a0ef2151ccf4bf,23,M,R,2020-09-11_11h19.32.425,Hybrid_Search_Task,2020.2.3,Win32,60,,,,,,,,,,,,,,,,,,,,,,,,,,,,,,,,,,,,,,,,,,,,,,,,,,,,,,,,,,,,,,,,,,,,,,,,,,,,,,,,0,2,2,6,1,Objects,guitar,Stimuli/Objects/guitar/AELCGUI13.jpg,,,,,,,,,,,,,,,,,,,,,,,,,,,,,,,,,,,,,,,,,,,,,,,,,,,,,,,,,,,,,,,,,,,,,,,,,,,,,
,,,,,,,,5f378e1794a0ef2151ccf4bf,23,M,R,2020-09-11_11h19.32.425,Hybrid_Search_Task,2020.2.3,Win32,60,,,,,,,,,,,,,,,,,,,,,,,,,,,,,,,,,,,,,,,,,,,,,,,,,,,,,,,,,,,,,,,,,,,,,,,,,,,,,,,,0,3,3,9,1,Objects,guitar,Stimuli/Objects/guitar/AELCGUITA.jpg,,,,,,,,,,,,,,,,,,,,,,,,,,,,,,,,,,,,,,,,,,,,,,,,,,,,,,,,,,,,,,,,,,,,,,,,,,,,,
,,,,,,,,5f378e1794a0ef2151ccf4bf,23,M,R,2020-09-11_11h19.32.425,Hybrid_Search_Task,2020.2.3,Win32,60,,,,,,,,,,,,,,,,,,,,,,,,,,,,,,,,,,,,,,,,,,,,,,,,,,,,,,,,,,,,,,,,,,,,,,,,,,,,,,,,0,4,4,12,1,Objects,guitar,Stimuli/Objects/guitar/Aguitar78.jpg,,,,,,,,,,,,,,,,,,,,,,,,,,,,,,,,,,,,,,,,,,,,,,,,,,,,,,,,,,,,,,,,,,,,,,,,,,,,,
,,,,,,,,5f378e1794a0ef2151ccf4bf,23,M,R,2020-09-11_11h19.32.425,Hybrid_Search_Task,2020.2.3,Win32,60,,,,,,,,,,,,,,,,,,,,,,,,,,,,,,,,,,,,,,,,,,,,,,,,,,,,,,,,,,,,,,,,,,,,,,,,,,,,,,,,0,5,5,1,1,Objects,guitar,Stimuli/Objects/guitar/AELCBGU10.jpg,,,,,,,,,,,,,,,,,,,,,,,,,,,,,,,,,,,,,,,,,,,,,,,,,,,,,,,,,,,,,,,,,,,,,,,,,,,,,
,,,,,,,,5f378e1794a0ef2151ccf4bf,23,M,R,2020-09-11_11h19.32.425,Hybrid_Search_Task,2020.2.3,Win32,60,,,,,,,,,,,,,,,,,,,,,,,,,,,,,,,,,,,,,,,,,,,,,,,,,,,,,,,,,,,,,,,,,,,,,,,,,,,,,,,,0,6,6,11,1,Objects,guitar,Stimuli/Objects/guitar/AELECGUI5.jpg,,,,,,,,,,,,,,,,,,,,,,,,,,,,,,,,,,,,,,,,,,,,,,,,,,,,,,,,,,,,,,,,,,,,,,,,,,,,,
,,,,,,,,5f378e1794a0ef2151ccf4bf,23,M,R,2020-09-11_11h19.32.425,Hybrid_Search_Task,2020.2.3,Win32,60,,,,,,,,,,,,,,,,,,,,,,,,,,,,,,,,,,,,,,,,,,,,,,,,,,,,,,,,,,,,,,,,,,,,,,,,,,,,,,,,0,7,7,15,1,Objects,guitar,Stimuli/Objects/guitar/guitar-sign-rock-n-roll.jpg,,,,,,,,,,,,,,,,,,,,,,,,,,,,,,,,,,,,,,,,,,,,,,,,,,,,,,,,,,,,,,,,,,,,,,,,,,,,,
,,,,,,,,5f378e1794a0ef2151ccf4bf,23,M,R,2020-09-11_11h19.32.425,Hybrid_Search_Task,2020.2.3,Win32,60,,,,,,,,,,,,,,,,,,,,,,,,,,,,,,,,,,,,,,,,,,,,,,,,,,,,,,,,,,,,,,,,,,,,,,,,,,,,,,,,0,8,8,8,1,Objects,guitar,Stimuli/Objects/guitar/AELCGUI7.jpg,,,,,,,,,,,,,,,,,,,,,,,,,,,,,,,,,,,,,,,,,,,,,,,,,,,,,,,,,,,,,,,,,,,,,,,,,,,,,
,,,,,,,,5f378e1794a0ef2151ccf4bf,23,M,R,2020-09-11_11h19.32.425,Hybrid_Search_Task,2020.2.3,Win32,60,,,,,,,,,,,,,,,,,,,,,,,,,,,,,,,,,,,,,,,,,,,,,,,,,,,,,,,,,,,,,,,,,,,,,,,,,,,,,,,,0,9,9,3,1,Objects,guitar,Stimuli/Objects/guitar/AELCBGU13.jpg,,,,,,,,,,,,,,,,,,,,,,,,,,,,,,,,,,,,,,,,,,,,,,,,,,,,,,,,,,,,,,,,,,,,,,,,,,,,,
,,,,,,,,5f378e1794a0ef2151ccf4bf,23,M,R,2020-09-11_11h19.32.425,Hybrid_Search_Task,2020.2.3,Win32,60,,,,,,,,,,,,,,,,,,,,,,,,,,,,,,,,,,,,,,,,,,,,,,,,,,,,,,,,,,,,,,,,,,,,,,,,,,,,,,,,0,10,10,0,1,Objects,guitar,Stimuli/Objects/guitar/ACLASSIC5.jpg,,,,,,,,,,,,,,,,,,,,,,,,,,,,,,,,,,,,,,,,,,,,,,,,,,,,,,,,,,,,,,,,,,,,,,,,,,,,,
,,,,,,,,5f378e1794a0ef2151ccf4bf,23,M,R,2020-09-11_11h19.32.425,Hybrid_Search_Task,2020.2.3,Win32,60,,,,,,,,,,,,,,,,,,,,,,,,,,,,,,,,,,,,,,,,,,,,,,,,,,,,,,,,,,,,,,,,,,,,,,,,,,,,,,,,0,11,11,10,1,Objects,guitar,Stimuli/Objects/guitar/AELECGU15.jpg,,,,,,,,,,,,,,,,,,,,,,,,,,,,,,,,,,,,,,,,,,,,,,,,,,,,,,,,,,,,,,,,,,,,,,,,,,,,,
,,,,,,,,5f378e1794a0ef2151ccf4bf,23,M,R,2020-09-11_11h19.32.425,Hybrid_Search_Task,2020.2.3,Win32,60,,,,,,,,,,,,,,,,,,,,,,,,,,,,,,,,,,,,,,,,,,,,,,,,,,,,,,,,,,,,,,,,,,,,,,,,,,,,,,,,0,12,12,13,1,Objects,guitar,Stimuli/Objects/guitar/Classical_Guitar.jpg,,,,,,,,,,,,,,,,,,,,,,,,,,,,,,,,,,,,,,,,,,,,,,,,,,,,,,,,,,,,,,,,,,,,,,,,,,,,,
,,,,,,,,5f378e1794a0ef2151ccf4bf,23,M,R,2020-09-11_11h19.32.425,Hybrid_Search_Task,2020.2.3,Win32,60,,,,,,,,,,,,,,,,,,,,,,,,,,,,,,,,,,,,,,,,,,,,,,,,,,,,,,,,,,,,,,,,,,,,,,,,,,,,,,,,0,13,13,2,1,Objects,guitar,Stimuli/Objects/guitar/AELCBGU12.jpg,,,,,,,,,,,,,,,,,,,,,,,,,,,,,,,,,,,,,,,,,,,,,,,,,,,,,,,,,,,,,,,,,,,,,,,,,,,,,
,,,,,,,,5f378e1794a0ef2151ccf4bf,23,M,R,2020-09-11_11h19.32.425,Hybrid_Search_Task,2020.2.3,Win32,60,,,,,,,,,,,,,,,,,,,,,,,,,,,,,,,,,,,,,,,,,,,,,,,,,,,,,,,,,,,,,,,,,,,,,,,,,,,,,,,,0,14,14,5,1,Objects,guitar,Stimuli/Objects/guitar/AELCGUI12.jpg,,,,,,,,,,,,,,,,,,,,,,,,,,,,,,,,,,,,,,,,,,,,,,,,,,,,,,,,,,,,,,,,,,,,,,,,,,,,,
,,,,,,,,5f378e1794a0ef2151ccf4bf,23,M,R,2020-09-11_11h19.32.425,Hybrid_Search_Task,2020.2.3,Win32,60,,,,,,,,,,,,,,,,,,,,,,,,,,,,,,,,,,,,,,,,,,,,,,,,,,,,,,,,,,,,,,,,,,,,,,,,,,,,,,,,0,15,15,16,1,Objects,guitar,Stimuli/Objects/guitar/iaxe_usb_guitar.jpg,,,,,,,,,,,,,,,,,,,,,,,,,,,,,,,,,,,,,,,,,,,,,,,,,,,,,,,,,,,,,,,,,,,,,,,,,,,,,
,,,,,,,,5f378e1794a0ef2151ccf4bf,23,M,R,2020-09-11_11h19.32.425,Hybrid_Search_Task,2020.2.3,Win32,60,,,,,,,,,,,,,,,,,,,,,,,,,,,,,,,,,,,,,,,,,,,,,,,,,,,,,,,,,,,,,,,,,,,,,,,,,,,,,,,,0,16,16,4,1,Objects,guitar,Stimuli/Objects/guitar/AELCGUI10.jpg,,,,,,,,,,,,,,,,,,,,,,,,,,,,,,,,,,,,,,,,,,,,,,,,,,,,,,,,,,,,,,,,,,,,,,,,,,,,,
,,,,,,,,5f378e1794a0ef2151ccf4bf,23,M,R,2020-09-11_11h19.32.425,Hybrid_Search_Task,2020.2.3,Win32,60,,,,,,,,,,,,,,,,,,,,,,,,,,,,,,,,,,,,,,,,,,,,,,,,,,,,,,,,,,,,,,,,,,,,,,,,,,,,,,,,,,,,,,,,0,8,8,16,1,StimList/guitar.xls,,,,,,,,,,,,,,,,,,,,,,,,,,,,,,,,,,,,,,,,,,,,,,,,,,,,,,,,,,,,,,,,,,,,,,,
,,,,,,,,5f378e1794a0ef2151ccf4bf,23,M,R,2020-09-11_11h19.32.425,Hybrid_Search_Task,2020.2.3,Win32,60,,,,,,,,,,,,,,,,,,,,,,,,,,,,,,,,,,,,,,,,,,,,,,,,,,,,,,,,,,,,,,,,,,,,,,,,,,,,,,,,0,0,0,14,1,Objects,cookpot,Stimuli/Objects/cookpot/pot10.jpg,,,,,,,,,,,,,,,,,,,,,,,,,,,,,,,,,,,,,,,,,,,,,,,,,,,,,,,,,,,,,,,,,,,,,,,,,,,,,
,,,,,,,,5f378e1794a0ef2151ccf4bf,23,M,R,2020-09-11_11h19.32.425,Hybrid_Search_Task,2020.2.3,Win32,60,,,,,,,,,,,,,,,,,,,,,,,,,,,,,,,,,,,,,,,,,,,,,,,,,,,,,,,,,,,,,,,,,,,,,,,,,,,,,,,,0,1,1,15,1,Objects,cookpot,Stimuli/Objects/cookpot/pot25.jpg,,,,,,,,,,,,,,,,,,,,,,,,,,,,,,,,,,,,,,,,,,,,,,,,,,,,,,,,,,,,,,,,,,,,,,,,,,,,,
,,,,,,,,5f378e1794a0ef2151ccf4bf,23,M,R,2020-09-11_11h19.32.425,Hybrid_Search_Task,2020.2.3,Win32,60,,,,,,,,,,,,,,,,,,,,,,,,,,,,,,,,,,,,,,,,,,,,,,,,,,,,,,,,,,,,,,,,,,,,,,,,,,,,,,,,0,2,2,2,1,Objects,cookpot,Stimuli/Objects/cookpot/26373465.thl.jpg,,,,,,,,,,,,,,,,,,,,,,,,,,,,,,,,,,,,,,,,,,,,,,,,,,,,,,,,,,,,,,,,,,,,,,,,,,,,,
,,,,,,,,5f378e1794a0ef2151ccf4bf,23,M,R,2020-09-11_11h19.32.425,Hybrid_Search_Task,2020.2.3,Win32,60,,,,,,,,,,,,,,,,,,,,,,,,,,,,,,,,,,,,,,,,,,,,,,,,,,,,,,,,,,,,,,,,,,,,,,,,,,,,,,,,0,3,3,4,1,Objects,cookpot,Stimuli/Objects/cookpot/26378610.thl.jpg,,,,,,,,,,,,,,,,,,,,,,,,,,,,,,,,,,,,,,,,,,,,,,,,,,,,,,,,,,,,,,,,,,,,,,,,,,,,,
,,,,,,,,5f378e1794a0ef2151ccf4bf,23,M,R,2020-09-11_11h19.32.425,Hybrid_Search_Task,2020.2.3,Win32,60,,,,,,,,,,,,,,,,,,,,,,,,,,,,,,,,,,,,,,,,,,,,,,,,,,,,,,,,,,,,,,,,,,,,,,,,,,,,,,,,0,4,4,13,1,Objects,cookpot,Stimuli/Objects/cookpot/porcelain-cookware.jpg,,,,,,,,,,,,,,,,,,,,,,,,,,,,,,,,,,,,,,,,,,,,,,,,,,,,,,,,,,,,,,,,,,,,,,,,,,,,,
,,,,,,,,5f378e1794a0ef2151ccf4bf,23,M,R,2020-09-11_11h19.32.425,Hybrid_Search_Task,2020.2.3,Win32,60,,,,,,,,,,,,,,,,,,,,,,,,,,,,,,,,,,,,,,,,,,,,,,,,,,,,,,,,,,,,,,,,,,,,,,,,,,,,,,,,0,5,5,0,1,Objects,cookpot,Stimuli/Objects/cookpot/0900631b8120f79cM.jpg,,,,,,,,,,,,,,,,,,,,,,,,,,,,,,,,,,,,,,,,,,,,,,,,,,,,,,,,,,,,,,,,,,,,,,,,,,,,,
,,,,,,,,5f378e1794a0ef2151ccf4bf,23,M,R,2020-09-11_11h19.32.425,Hybrid_Search_Task,2020.2.3,Win32,60,,,,,,,,,,,,,,,,,,,,,,,,,,,,,,,,,,,,,,,,,,,,,,,,,,,,,,,,,,,,,,,,,,,,,,,,,,,,,,,,0,6,6,8,1,Objects,cookpot,Stimuli/Objects/cookpot/ACOOKPO31.jpg,,,,,,,,,,,,,,,,,,,,,,,,,,,,,,,,,,,,,,,,,,,,,,,,,,,,,,,,,,,,,,,,,,,,,,,,,,,,,
,,,,,,,,5f378e1794a0ef2151ccf4bf,23,M,R,2020-09-11_11h19.32.425,Hybrid_Search_Task,2020.2.3,Win32,60,,,,,,,,,,,,,,,,,,,,,,,,,,,,,,,,,,,,,,,,,,,,,,,,,,,,,,,,,,,,,,,,,,,,,,,,,,,,,,,,0,7,7,10,1,Objects,cookpot,Stimuli/Objects/cookpot/ACOOKPO46.jpg,,,,,,,,,,,,,,,,,,,,,,,,,,,,,,,,,,,,,,,,,,,,,,,,,,,,,,,,,,,,,,,,,,,,,,,,,,,,,
,,,,,,,,5f378e1794a0ef2151ccf4bf,23,M,R,2020-09-11_11h19.32.425,Hybrid_Search_Task,2020.2.3,Win32,60,,,,,,,,,,,,,,,,,,,,,,,,,,,,,,,,,,,,,,,,,,,,,,,,,,,,,,,,,,,,,,,,,,,,,,,,,,,,,,,,0,8,8,12,1,Objects,cookpot,Stimuli/Objects/cookpot/ACOOKPO56.jpg,,,,,,,,,,,,,,,,,,,,,,,,,,,,,,,,,,,,,,,,,,,,,,,,,,,,,,,,,,,,,,,,,,,,,,,,,,,,,
,,,,,,,,5f378e1794a0ef2151ccf4bf,23,M,R,2020-09-11_11h19.32.425,Hybrid_Search_Task,2020.2.3,Win32,60,,,,,,,,,,,,,,,,,,,,,,,,,,,,,,,,,,,,,,,,,,,,,,,,,,,,,,,,,,,,,,,,,,,,,,,,,,,,,,,,0,9,9,9,1,Objects,cookpot,Stimuli/Objects/cookpot/ACOOKPO44.jpg,,,,,,,,,,,,,,,,,,,,,,,,,,,,,,,,,,,,,,,,,,,,,,,,,,,,,,,,,,,,,,,,,,,,,,,,,,,,,
,,,,,,,,5f378e1794a0ef2151ccf4bf,23,M,R,2020-09-11_11h19.32.425,Hybrid_Search_Task,2020.2.3,Win32,60,,,,,,,,,,,,,,,,,,,,,,,,,,,,,,,,,,,,,,,,,,,,,,,,,,,,,,,,,,,,,,,,,,,,,,,,,,,,,,,,0,10,10,3,1,Objects,cookpot,Stimuli/Objects/cookpot/26378587.thl.jpg,,,,,,,,,,,,,,,,,,,,,,,,,,,,,,,,,,,,,,,,,,,,,,,,,,,,,,,,,,,,,,,,,,,,,,,,,,,,,
,,,,,,,,5f378e1794a0ef2151ccf4bf,23,M,R,2020-09-11_11h19.32.425,Hybrid_Search_Task,2020.2.3,Win32,60,,,,,,,,,,,,,,,,,,,,,,,,,,,,,,,,,,,,,,,,,,,,,,,,,,,,,,,,,,,,,,,,,,,,,,,,,,,,,,,,0,11,11,6,1,Objects,cookpot,Stimuli/Objects/cookpot/26427266.thl.jpg,,,,,,,,,,,,,,,,,,,,,,,,,,,,,,,,,,,,,,,,,,,,,,,,,,,,,,,,,,,,,,,,,,,,,,,,,,,,,
,,,,,,,,5f378e1794a0ef2151ccf4bf,23,M,R,2020-09-11_11h19.32.425,Hybrid_Search_Task,2020.2.3,Win32,60,,,,,,,,,,,,,,,,,,,,,,,,,,,,,,,,,,,,,,,,,,,,,,,,,,,,,,,,,,,,,,,,,,,,,,,,,,,,,,,,0,12,12,11,1,Objects,cookpot,Stimuli/Objects/cookpot/ACOOKPO51.jpg,,,,,,,,,,,,,,,,,,,,,,,,,,,,,,,,,,,,,,,,,,,,,,,,,,,,,,,,,,,,,,,,,,,,,,,,,,,,,
,,,,,,,,5f378e1794a0ef2151ccf4bf,23,M,R,2020-09-11_11h19.32.425,Hybrid_Search_Task,2020.2.3,Win32,60,,,,,,,,,,,,,,,,,,,,,,,,,,,,,,,,,,,,,,,,,,,,,,,,,,,,,,,,,,,,,,,,,,,,,,,,,,,,,,,,0,13,13,16,1,Objects,cookpot,Stimuli/Objects/cookpot/pot9.jpg,,,,,,,,,,,,,,,,,,,,,,,,,,,,,,,,,,,,,,,,,,,,,,,,,,,,,,,,,,,,,,,,,,,,,,,,,,,,,
,,,,,,,,5f378e1794a0ef2151ccf4bf,23,M,R,2020-09-11_11h19.32.425,Hybrid_Search_Task,2020.2.3,Win32,60,,,,,,,,,,,,,,,,,,,,,,,,,,,,,,,,,,,,,,,,,,,,,,,,,,,,,,,,,,,,,,,,,,,,,,,,,,,,,,,,0,14,14,5,1,Objects,cookpot,Stimuli/Objects/cookpot/26378630.thl.jpg,,,,,,,,,,,,,,,,,,,,,,,,,,,,,,,,,,,,,,,,,,,,,,,,,,,,,,,,,,,,,,,,,,,,,,,,,,,,,
,,,,,,,,5f378e1794a0ef2151ccf4bf,23,M,R,2020-09-11_11h19.32.425,Hybrid_Search_Task,2020.2.3,Win32,60,,,,,,,,,,,,,,,,,,,,,,,,,,,,,,,,,,,,,,,,,,,,,,,,,,,,,,,,,,,,,,,,,,,,,,,,,,,,,,,,0,15,15,7,1,Objects,cookpot,Stimuli/Objects/cookpot/ACOOKPO14.jpg,,,,,,,,,,,,,,,,,,,,,,,,,,,,,,,,,,,,,,,,,,,,,,,,,,,,,,,,,,,,,,,,,,,,,,,,,,,,,
,,,,,,,,5f378e1794a0ef2151ccf4bf,23,M,R,2020-09-11_11h19.32.425,Hybrid_Search_Task,2020.2.3,Win32,60,,,,,,,,,,,,,,,,,,,,,,,,,,,,,,,,,,,,,,,,,,,,,,,,,,,,,,,,,,,,,,,,,,,,,,,,,,,,,,,,0,16,16,1,1,Objects,cookpot,Stimuli/Objects/cookpot/26373121.thl.jpg,,,,,,,,,,,,,,,,,,,,,,,,,,,,,,,,,,,,,,,,,,,,,,,,,,,,,,,,,,,,,,,,,,,,,,,,,,,,,
,,,,,,,,5f378e1794a0ef2151ccf4bf,23,M,R,2020-09-11_11h19.32.425,Hybrid_Search_Task,2020.2.3,Win32,60,,,,,,,,,,,,,,,,,,,,,,,,,,,,,,,,,,,,,,,,,,,,,,,,,,,,,,,,,,,,,,,,,,,,,,,,,,,,,,,,,,,,,,,,0,9,9,12,1,StimList/cookpot.xls,,,,,,,,,,,,,,,,,,,,,,,,,,,,,,,,,,,,,,,,,,,,,,,,,,,,,,,,,,,,,,,,,,,,,,,
,,,,,,,,5f378e1794a0ef2151ccf4bf,23,M,R,2020-09-11_11h19.32.425,Hybrid_Search_Task,2020.2.3,Win32,60,,,,,,,,,,,,,,,,,,,,,,,,,,,,,,,,,,,,,,,,,,,,,,,,,,,,,,,,,,,,,,,,,,,,,,,,,,,,,,,,0,0,0,11,1,Objects,binoculars,Stimuli/Objects/binoculars/bushnell-natureview-binoculars-8x42.jpg,,,,,,,,,,,,,,,,,,,,,,,,,,,,,,,,,,,,,,,,,,,,,,,,,,,,,,,,,,,,,,,,,,,,,,,,,,,,,
,,,,,,,,5f378e1794a0ef2151ccf4bf,23,M,R,2020-09-11_11h19.32.425,Hybrid_Search_Task,2020.2.3,Win32,60,,,,,,,,,,,,,,,,,,,,,,,,,,,,,,,,,,,,,,,,,,,,,,,,,,,,,,,,,,,,,,,,,,,,,,,,,,,,,,,,0,1,1,1,1,Objects,binoculars,Stimuli/Objects/binoculars/ABINOCU22.jpg,,,,,,,,,,,,,,,,,,,,,,,,,,,,,,,,,,,,,,,,,,,,,,,,,,,,,,,,,,,,,,,,,,,,,,,,,,,,,
,,,,,,,,5f378e1794a0ef2151ccf4bf,23,M,R,2020-09-11_11h19.32.425,Hybrid_Search_Task,2020.2.3,Win32,60,,,,,,,,,,,,,,,,,,,,,,,,,,,,,,,,,,,,,,,,,,,,,,,,,,,,,,,,,,,,,,,,,,,,,,,,,,,,,,,,0,2,2,16,1,Objects,binoculars,Stimuli/Objects/binoculars/yukon_22031_binoculars.jpg,,,,,,,,,,,,,,,,,,,,,,,,,,,,,,,,,,,,,,,,,,,,,,,,,,,,,,,,,,,,,,,,,,,,,,,,,,,,,
,,,,,,,,5f378e1794a0ef2151ccf4bf,23,M,R,2020-09-11_11h19.32.425,Hybrid_Search_Task,2020.2.3,Win32,60,,,,,,,,,,,,,,,,,,,,,,,,,,,,,,,,,,,,,,,,,,,,,,,,,,,,,,,,,,,,,,,,,,,,,,,,,,,,,,,,0,3,3,7,1,Objects,binoculars,Stimuli/Objects/binoculars/Abinoculars15.jpg,,,,,,,,,,,,,,,,,,,,,,,,,,,,,,,,,,,,,,,,,,,,,,,,,,,,,,,,,,,,,,,,,,,,,,,,,,,,,
,,,,,,,,5f378e1794a0ef2151ccf4bf,23,M,R,2020-09-11_11h19.32.425,Hybrid_Search_Task,2020.2.3,Win32,60,,,,,,,,,,,,,,,,,,,,,,,,,,,,,,,,,,,,,,,,,,,,,,,,,,,,,,,,,,,,,,,,,,,,,,,,,,,,,,,,0,4,4,12,1,Objects,binoculars,Stimuli/Objects/binoculars/LEUPOLD 8X42 MESA BINOCULARS.jpg,,,,,,,,,,,,,,,,,,,,,,,,,,,,,,,,,,,,,,,,,,,,,,,,,,,,,,,,,,,,,,,,,,,,,,,,,,,,,
,,,,,,,,5f378e1794a0ef2151ccf4bf,23,M,R,2020-09-11_11h19.32.425,Hybrid_Search_Task,2020.2.3,Win32,60,,,,,,,,,,,,,,,,,,,,,,,,,,,,,,,,,,,,,,,,,,,,,,,,,,,,,,,,,,,,,,,,,,,,,,,,,,,,,,,,0,5,5,2,1,Objects,binoculars,Stimuli/Objects/binoculars/ABINOCU40.jpg,,,,,,,,,,,,,,,,,,,,,,,,,,,,,,,,,,,,,,,,,,,,,,,,,,,,,,,,,,,,,,,,,,,,,,,,,,,,,
,,,,,,,,5f378e1794a0ef2151ccf4bf,23,M,R,2020-09-11_11h19.32.425,Hybrid_Search_Task,2020.2.3,Win32,60,,,,,,,,,,,,,,,,,,,,,,,,,,,,,,,,,,,,,,,,,,,,,,,,,,,,,,,,,,,,,,,,,,,,,,,,,,,,,,,,0,6,6,14,1,Objects,binoculars,Stimuli/Objects/binoculars/necessities_8.jpg,,,,,,,,,,,,,,,,,,,,,,,,,,,,,,,,,,,,,,,,,,,,,,,,,,,,,,,,,,,,,,,,,,,,,,,,,,,,,
,,,,,,,,5f378e1794a0ef2151ccf4bf,23,M,R,2020-09-11_11h19.32.425,Hybrid_Search_Task,2020.2.3,Win32,60,,,,,,,,,,,,,,,,,,,,,,,,,,,,,,,,,,,,,,,,,,,,,,,,,,,,,,,,,,,,,,,,,,,,,,,,,,,,,,,,0,7,7,0,1,Objects,binoculars,Stimuli/Objects/binoculars/0053_minox_binoculars.jpg,,,,,,,,,,,,,,,,,,,,,,,,,,,,,,,,,,,,,,,,,,,,,,,,,,,,,,,,,,,,,,,,,,,,,,,,,,,,,
,,,,,,,,5f378e1794a0ef2151ccf4bf,23,M,R,2020-09-11_11h19.32.425,Hybrid_Search_Task,2020.2.3,Win32,60,,,,,,,,,,,,,,,,,,,,,,,,,,,,,,,,,,,,,,,,,,,,,,,,,,,,,,,,,,,,,,,,,,,,,,,,,,,,,,,,0,8,8,10,1,Objects,binoculars,Stimuli/Objects/binoculars/binoculars.jpg,,,,,,,,,,,,,,,,,,,,,,,,,,,,,,,,,,,,,,,,,,,,,,,,,,,,,,,,,,,,,,,,,,,,,,,,,,,,,
,,,,,,,,5f378e1794a0ef2151ccf4bf,23,M,R,2020-09-11_11h19.32.425,Hybrid_Search_Task,2020.2.3,Win32,60,,,,,,,,,,,,,,,,,,,,,,,,,,,,,,,,,,,,,,,,,,,,,,,,,,,,,,,,,,,,,,,,,,,,,,,,,,,,,,,,0,9,9,4,1,Objects,binoculars,Stimuli/Objects/binoculars/ABINOCUL4.jpg,,,,,,,,,,,,,,,,,,,,,,,,,,,,,,,,,,,,,,,,,,,,,,,,,,,,,,,,,,,,,,,,,,,,,,,,,,,,,
,,,,,,,,5f378e1794a0ef2151ccf4bf,23,M,R,2020-09-11_11h19.32.425,Hybrid_Search_Task,2020.2.3,Win32,60,,,,,,,,,,,,,,,,,,,,,,,,,,,,,,,,,,,,,,,,,,,,,,,,,,,,,,,,,,,,,,,,,,,,,,,,,,,,,,,,0,10,10,9,1,Objects,binoculars,Stimuli/Objects/binoculars/binocular22s.jpg,,,,,,,,,,,,,,,,,,,,,,,,,,,,,,,,,,,,,,,,,,,,,,,,,,,,,,,,,,,,,,,,,,,,,,,,,,,,,
,,,,,,,,5f378e1794a0ef2151ccf4bf,23,M,R,2020-09-11_11h19.32.425,Hybrid_Search_Task,2020.2.3,Win32,60,,,,,,,,,,,,,,,,,,,,,,,,,,,,,,,,,,,,,,,,,,,,,,,,,,,,,,,,,,,,,,,,,,,,,,,,,,,,,,,,0,11,11,8,1,Objects,binoculars,Stimuli/Objects/binoculars/Abinoculars20.jpg,,,,,,,,,,,,,,,,,,,,,,,,,,,,,,,,,,,,,,,,,,,,,,,,,,,,,,,,,,,,,,,,,,,,,,,,,,,,,
,,,,,,,,5f378e1794a0ef2151ccf4bf,23,M,R,2020-09-11_11h19.32.425,Hybrid_Search_Task,2020.2.3,Win32,60,,,,,,,,,,,,,,,,,,,,,,,,,,,,,,,,,,,,,,,,,,,,,,,,,,,,,,,,,,,,,,,,,,,,,,,,,,,,,,,,0,12,12,13,1,Objects,binoculars,Stimuli/Objects/binoculars/necessities_7.jpg,,,,,,,,,,,,,,,,,,,,,,,,,,,,,,,,,,,,,,,,,,,,,,,,,,,,,,,,,,,,,,,,,,,,,,,,,,,,,
,,,,,,,,5f378e1794a0ef2151ccf4bf,23,M,R,2020-09-11_11h19.32.425,Hybrid_Search_Task,2020.2.3,Win32,60,,,,,,,,,,,,,,,,,,,,,,,,,,,,,,,,,,,,,,,,,,,,,,,,,,,,,,,,,,,,,,,,,,,,,,,,,,,,,,,,0,13,13,5,1,Objects,binoculars,Stimuli/Objects/binoculars/ABINOCULA.jpg,,,,,,,,,,,,,,,,,,,,,,,,,,,,,,,,,,,,,,,,,,,,,,,,,,,,,,,,,,,,,,,,,,,,,,,,,,,,,
,,,,,,,,5f378e1794a0ef2151ccf4bf,23,M,R,2020-09-11_11h19.32.425,Hybrid_Search_Task,2020.2.3,Win32,60,,,,,,,,,,,,,,,,,,,,,,,,,,,,,,,,,,,,,,,,,,,,,,,,,,,,,,,,,,,,,,,,,,,,,,,,,,,,,,,,0,14,14,3,1,Objects,binoculars,Stimuli/Objects/binoculars/ABINOCU53.jpg,,,,,,,,,,,,,,,,,,,,,,,,,,,,,,,,,,,,,,,,,,,,,,,,,,,,,,,,,,,,,,,,,,,,,,,,,,,,,
,,,,,,,,5f378e1794a0ef2151ccf4bf,23,M,R,2020-09-11_11h19.32.425,Hybrid_Search_Task,2020.2.3,Win32,60,,,,,,,,,,,,,,,,,,,,,,,,,,,,,,,,,,,,,,,,,,,,,,,,,,,,,,,,,,,,,,,,,,,,,,,,,,,,,,,,0,15,15,15,1,Objects,binoculars,Stimuli/Objects/binoculars/necessities_9.jpg,,,,,,,,,,,,,,,,,,,,,,,,,,,,,,,,,,,,,,,,,,,,,,,,,,,,,,,,,,,,,,,,,,,,,,,,,,,,,
,,,,,,,,5f378e1794a0ef2151ccf4bf,23,M,R,2020-09-11_11h19.32.425,Hybrid_Search_Task,2020.2.3,Win32,60,,,,,,,,,,,,,,,,,,,,,,,,,,,,,,,,,,,,,,,,,,,,,,,,,,,,,,,,,,,,,,,,,,,,,,,,,,,,,,,,0,16,16,6,1,Objects,binoculars,Stimuli/Objects/binoculars/Abinoculars10.jpg,,,,,,,,,,,,,,,,,,,,,,,,,,,,,,,,,,,,,,,,,,,,,,,,,,,,,,,,,,,,,,,,,,,,,,,,,,,,,
,,,,,,,,5f378e1794a0ef2151ccf4bf,23,M,R,2020-09-11_11h19.32.425,Hybrid_Search_Task,2020.2.3,Win32,60,,,,,,,,,,,,,,,,,,,,,,,,,,,,,,,,,,,,,,,,,,,,,,,,,,,,,,,,,,,,,,,,,,,,,,,,,,,,,,,,,,,,,,,,0,10,10,4,1,StimList/binoculars.xls,,,,,,,,,,,,,,,,,,,,,,,,,,,,,,,,,,,,,,,,,,,,,,,,,,,,,,,,,,,,,,,,,,,,,,,
,,,,,,,,5f378e1794a0ef2151ccf4bf,23,M,R,2020-09-11_11h19.32.425,Hybrid_Search_Task,2020.2.3,Win32,60,,,,,,,,,,,,,,,,,,,,,,,,,,,,,,,,,,,,,,,,,,,,,,,,,,,,,,,,,,,,,,,,,,,,,,,,,,,,,,,,0,0,0,13,1,Objects,phone,Stimuli/Objects/phone/AFAXPHON6.jpg,,,,,,,,,,,,,,,,,,,,,,,,,,,,,,,,,,,,,,,,,,,,,,,,,,,,,,,,,,,,,,,,,,,,,,,,,,,,,
,,,,,,,,5f378e1794a0ef2151ccf4bf,23,M,R,2020-09-11_11h19.32.425,Hybrid_Search_Task,2020.2.3,Win32,60,,,,,,,,,,,,,,,,,,,,,,,,,,,,,,,,,,,,,,,,,,,,,,,,,,,,,,,,,,,,,,,,,,,,,,,,,,,,,,,,0,1,1,12,1,Objects,phone,Stimuli/Objects/phone/ABLUPHONE.jpg,,,,,,,,,,,,,,,,,,,,,,,,,,,,,,,,,,,,,,,,,,,,,,,,,,,,,,,,,,,,,,,,,,,,,,,,,,,,,
,,,,,,,,5f378e1794a0ef2151ccf4bf,23,M,R,2020-09-11_11h19.32.425,Hybrid_Search_Task,2020.2.3,Win32,60,,,,,,,,,,,,,,,,,,,,,,,,,,,,,,,,,,,,,,,,,,,,,,,,,,,,,,,,,,,,,,,,,,,,,,,,,,,,,,,,0,2,2,3,1,Objects,phone,Stimuli/Objects/phone/26378271.thl.jpg,,,,,,,,,,,,,,,,,,,,,,,,,,,,,,,,,,,,,,,,,,,,,,,,,,,,,,,,,,,,,,,,,,,,,,,,,,,,,
,,,,,,,,5f378e1794a0ef2151ccf4bf,23,M,R,2020-09-11_11h19.32.425,Hybrid_Search_Task,2020.2.3,Win32,60,,,,,,,,,,,,,,,,,,,,,,,,,,,,,,,,,,,,,,,,,,,,,,,,,,,,,,,,,,,,,,,,,,,,,,,,,,,,,,,,0,3,3,0,1,Objects,phone,Stimuli/Objects/phone/22831140.thl.jpg,,,,,,,,,,,,,,,,,,,,,,,,,,,,,,,,,,,,,,,,,,,,,,,,,,,,,,,,,,,,,,,,,,,,,,,,,,,,,
,,,,,,,,5f378e1794a0ef2151ccf4bf,23,M,R,2020-09-11_11h19.32.425,Hybrid_Search_Task,2020.2.3,Win32,60,,,,,,,,,,,,,,,,,,,,,,,,,,,,,,,,,,,,,,,,,,,,,,,,,,,,,,,,,,,,,,,,,,,,,,,,,,,,,,,,0,4,4,7,1,Objects,phone,Stimuli/Objects/phone/26379359.thl.jpg,,,,,,,,,,,,,,,,,,,,,,,,,,,,,,,,,,,,,,,,,,,,,,,,,,,,,,,,,,,,,,,,,,,,,,,,,,,,,
,,,,,,,,5f378e1794a0ef2151ccf4bf,23,M,R,2020-09-11_11h19.32.425,Hybrid_Search_Task,2020.2.3,Win32,60,,,,,,,,,,,,,,,,,,,,,,,,,,,,,,,,,,,,,,,,,,,,,,,,,,,,,,,,,,,,,,,,,,,,,,,,,,,,,,,,0,5,5,10,1,Objects,phone,Stimuli/Objects/phone/8047915.thl.jpg,,,,,,,,,,,,,,,,,,,,,,,,,,,,,,,,,,,,,,,,,,,,,,,,,,,,,,,,,,,,,,,,,,,,,,,,,,,,,
,,,,,,,,5f378e1794a0ef2151ccf4bf,23,M,R,2020-09-11_11h19.32.425,Hybrid_Search_Task,2020.2.3,Win32,60,,,,,,,,,,,,,,,,,,,,,,,,,,,,,,,,,,,,,,,,,,,,,,,,,,,,,,,,,,,,,,,,,,,,,,,,,,,,,,,,0,6,6,4,1,Objects,phone,Stimuli/Objects/phone/26378886.thl.jpg,,,,,,,,,,,,,,,,,,,,,,,,,,,,,,,,,,,,,,,,,,,,,,,,,,,,,,,,,,,,,,,,,,,,,,,,,,,,,
,,,,,,,,5f378e1794a0ef2151ccf4bf,23,M,R,2020-09-11_11h19.32.425,Hybrid_Search_Task,2020.2.3,Win32,60,,,,,,,,,,,,,,,,,,,,,,,,,,,,,,,,,,,,,,,,,,,,,,,,,,,,,,,,,,,,,,,,,,,,,,,,,,,,,,,,0,7,7,5,1,Objects,phone,Stimuli/Objects/phone/26379320.thl.jpg,,,,,,,,,,,,,,,,,,,,,,,,,,,,,,,,,,,,,,,,,,,,,,,,,,,,,,,,,,,,,,,,,,,,,,,,,,,,,
,,,,,,,,5f378e1794a0ef2151ccf4bf,23,M,R,2020-09-11_11h19.32.425,Hybrid_Search_Task,2020.2.3,Win32,60,,,,,,,,,,,,,,,,,,,,,,,,,,,,,,,,,,,,,,,,,,,,,,,,,,,,,,,,,,,,,,,,,,,,,,,,,,,,,,,,0,8,8,11,1,Objects,phone,Stimuli/Objects/phone/8081131.thl.jpg,,,,,,,,,,,,,,,,,,,,,,,,,,,,,,,,,,,,,,,,,,,,,,,,,,,,,,,,,,,,,,,,,,,,,,,,,,,,,
,,,,,,,,5f378e1794a0ef2151ccf4bf,23,M,R,2020-09-11_11h19.32.425,Hybrid_Search_Task,2020.2.3,Win32,60,,,,,,,,,,,,,,,,,,,,,,,,,,,,,,,,,,,,,,,,,,,,,,,,,,,,,,,,,,,,,,,,,,,,,,,,,,,,,,,,0,9,9,16,1,Objects,phone,Stimuli/Objects/phone/Atelephone4.jpg,,,,,,,,,,,,,,,,,,,,,,,,,,,,,,,,,,,,,,,,,,,,,,,,,,,,,,,,,,,,,,,,,,,,,,,,,,,,,
,,,,,,,,5f378e1794a0ef2151ccf4bf,23,M,R,2020-09-11_11h19.32.425,Hybrid_Search_Task,2020.2.3,Win32,60,,,,,,,,,,,,,,,,,,,,,,,,,,,,,,,,,,,,,,,,,,,,,,,,,,,,,,,,,,,,,,,,,,,,,,,,,,,,,,,,0,10,10,2,1,Objects,phone,Stimuli/Objects/phone/26377754.thl.jpg,,,,,,,,,,,,,,,,,,,,,,,,,,,,,,,,,,,,,,,,,,,,,,,,,,,,,,,,,,,,,,,,,,,,,,,,,,,,,
,,,,,,,,5f378e1794a0ef2151ccf4bf,23,M,R,2020-09-11_11h19.32.425,Hybrid_Search_Task,2020.2.3,Win32,60,,,,,,,,,,,,,,,,,,,,,,,,,,,,,,,,,,,,,,,,,,,,,,,,,,,,,,,,,,,,,,,,,,,,,,,,,,,,,,,,0,11,11,8,1,Objects,phone,Stimuli/Objects/phone/26379371.thl.jpg,,,,,,,,,,,,,,,,,,,,,,,,,,,,,,,,,,,,,,,,,,,,,,,,,,,,,,,,,,,,,,,,,,,,,,,,,,,,,
,,,,,,,,5f378e1794a0ef2151ccf4bf,23,M,R,2020-09-11_11h19.32.425,Hybrid_Search_Task,2020.2.3,Win32,60,,,,,,,,,,,,,,,,,,,,,,,,,,,,,,,,,,,,,,,,,,,,,,,,,,,,,,,,,,,,,,,,,,,,,,,,,,,,,,,,0,12,12,15,1,Objects,phone,Stimuli/Objects/phone/Atelephone2.jpg,,,,,,,,,,,,,,,,,,,,,,,,,,,,,,,,,,,,,,,,,,,,,,,,,,,,,,,,,,,,,,,,,,,,,,,,,,,,,
,,,,,,,,5f378e1794a0ef2151ccf4bf,23,M,R,2020-09-11_11h19.32.425,Hybrid_Search_Task,2020.2.3,Win32,60,,,,,,,,,,,,,,,,,,,,,,,,,,,,,,,,,,,,,,,,,,,,,,,,,,,,,,,,,,,,,,,,,,,,,,,,,,,,,,,,0,13,13,6,1,Objects,phone,Stimuli/Objects/phone/26379340.thl.jpg,,,,,,,,,,,,,,,,,,,,,,,,,,,,,,,,,,,,,,,,,,,,,,,,,,,,,,,,,,,,,,,,,,,,,,,,,,,,,
,,,,,,,,5f378e1794a0ef2151ccf4bf,23,M,R,2020-09-11_11h19.32.425,Hybrid_Search_Task,2020.2.3,Win32,60,,,,,,,,,,,,,,,,,,,,,,,,,,,,,,,,,,,,,,,,,,,,,,,,,,,,,,,,,,,,,,,,,,,,,,,,,,,,,,,,0,14,14,1,1,Objects,phone,Stimuli/Objects/phone/26377681.thl.jpg,,,,,,,,,,,,,,,,,,,,,,,,,,,,,,,,,,,,,,,,,,,,,,,,,,,,,,,,,,,,,,,,,,,,,,,,,,,,,
,,,,,,,,5f378e1794a0ef2151ccf4bf,23,M,R,2020-09-11_11h19.32.425,Hybrid_Search_Task,2020.2.3,Win32,60,,,,,,,,,,,,,,,,,,,,,,,,,,,,,,,,,,,,,,,,,,,,,,,,,,,,,,,,,,,,,,,,,,,,,,,,,,,,,,,,0,15,15,9,1,Objects,phone,Stimuli/Objects/phone/26442658.thl.jpg,,,,,,,,,,,,,,,,,,,,,,,,,,,,,,,,,,,,,,,,,,,,,,,,,,,,,,,,,,,,,,,,,,,,,,,,,,,,,
,,,,,,,,5f378e1794a0ef2151ccf4bf,23,M,R,2020-09-11_11h19.32.425,Hybrid_Search_Task,2020.2.3,Win32,60,,,,,,,,,,,,,,,,,,,,,,,,,,,,,,,,,,,,,,,,,,,,,,,,,,,,,,,,,,,,,,,,,,,,,,,,,,,,,,,,0,16,16,14,1,Objects,phone,Stimuli/Objects/phone/AOFFPHON3.jpg,,,,,,,,,,,,,,,,,,,,,,,,,,,,,,,,,,,,,,,,,,,,,,,,,,,,,,,,,,,,,,,,,,,,,,,,,,,,,
,,,,,,,,5f378e1794a0ef2151ccf4bf,23,M,R,2020-09-11_11h19.32.425,Hybrid_Search_Task,2020.2.3,Win32,60,,,,,,,,,,,,,,,,,,,,,,,,,,,,,,,,,,,,,,,,,,,,,,,,,,,,,,,,,,,,,,,,,,,,,,,,,,,,,,,,,,,,,,,,0,11,11,25,1,StimList/phone.xls,,,,,,,,,,,,,,,,,,,,,,,,,,,,,,,,,,,,,,,,,,,,,,,,,,,,,,,,,,,,,,,,,,,,,,,
,,,,,,,,5f378e1794a0ef2151ccf4bf,23,M,R,2020-09-11_11h19.32.425,Hybrid_Search_Task,2020.2.3,Win32,60,,,,,,,,,,,,,,,,,,,,,,,,,,,,,,,,,,,,,,,,,,,,,,,,,,,,,,,,,,,,,,,,,,,,,,,,,,,,,,,,0,0,0,7,1,Objects,ceilingfan,Stimuli/Objects/ceilingfan/b034bb18-1b11-4187-b050-5199b7ad1c83_300.jpg,,,,,,,,,,,,,,,,,,,,,,,,,,,,,,,,,,,,,,,,,,,,,,,,,,,,,,,,,,,,,,,,,,,,,,,,,,,,,
,,,,,,,,5f378e1794a0ef2151ccf4bf,23,M,R,2020-09-11_11h19.32.425,Hybrid_Search_Task,2020.2.3,Win32,60,,,,,,,,,,,,,,,,,,,,,,,,,,,,,,,,,,,,,,,,,,,,,,,,,,,,,,,,,,,,,,,,,,,,,,,,,,,,,,,,0,1,1,16,1,Objects,ceilingfan,Stimuli/Objects/ceilingfan/f9ee401c-1a68-4938-a855-db837286a959_300.jpg,,,,,,,,,,,,,,,,,,,,,,,,,,,,,,,,,,,,,,,,,,,,,,,,,,,,,,,,,,,,,,,,,,,,,,,,,,,,,
,,,,,,,,5f378e1794a0ef2151ccf4bf,23,M,R,2020-09-11_11h19.32.425,Hybrid_Search_Task,2020.2.3,Win32,60,,,,,,,,,,,,,,,,,,,,,,,,,,,,,,,,,,,,,,,,,,,,,,,,,,,,,,,,,,,,,,,,,,,,,,,,,,,,,,,,0,2,2,11,1,Objects,ceilingfan,Stimuli/Objects/ceilingfan/c9151c3f-a859-4abe-804b-8b1f59df8a75_300.jpg,,,,,,,,,,,,,,,,,,,,,,,,,,,,,,,,,,,,,,,,,,,,,,,,,,,,,,,,,,,,,,,,,,,,,,,,,,,,,
,,,,,,,,5f378e1794a0ef2151ccf4bf,23,M,R,2020-09-11_11h19.32.425,Hybrid_Search_Task,2020.2.3,Win32,60,,,,,,,,,,,,,,,,,,,,,,,,,,,,,,,,,,,,,,,,,,,,,,,,,,,,,,,,,,,,,,,,,,,,,,,,,,,,,,,,0,3,3,2,1,Objects,ceilingfan,Stimuli/Objects/ceilingfan/51312568-cd00-4241-9638-47ae9f33fbaa_300.jpg,,,,,,,,,,,,,,,,,,,,,,,,,,,,,,,,,,,,,,,,,,,,,,,,,,,,,,,,,,,,,,,,,,,,,,,,,,,,,
,,,,,,,,5f378e1794a0ef2151ccf4bf,23,M,R,2020-09-11_11h19.32.425,Hybrid_Search_Task,2020.2.3,Win32,60,,,,,,,,,,,,,,,,,,,,,,,,,,,,,,,,,,,,,,,,,,,,,,,,,,,,,,,,,,,,,,,,,,,,,,,,,,,,,,,,0,4,4,14,1,Objects,ceilingfan,Stimuli/Objects/ceilingfan/dce9c88a-85f7-48de-aa55-246e05bce514_300.jpg,,,,,,,,,,,,,,,,,,,,,,,,,,,,,,,,,,,,,,,,,,,,,,,,,,,,,,,,,,,,,,,,,,,,,,,,,,,,,
,,,,,,,,5f378e1794a0ef2151ccf4bf,23,M,R,2020-09-11_11h19.32.425,Hybrid_Search_Task,2020.2.3,Win32,60,,,,,,,,,,,,,,,,,,,,,,,,,,,,,,,,,,,,,,,,,,,,,,,,,,,,,,,,,,,,,,,,,,,,,,,,,,,,,,,,0,5,5,9,1,Objects,ceilingfan,Stimuli/Objects/ceilingfan/ba9988fd-9041-4b74-9cfb-06dde69e373e_300.jpg,,,,,,,,,,,,,,,,,,,,,,,,,,,,,,,,,,,,,,,,,,,,,,,,,,,,,,,,,,,,,,,,,,,,,,,,,,,,,
,,,,,,,,5f378e1794a0ef2151ccf4bf,23,M,R,2020-09-11_11h19.32.425,Hybrid_Search_Task,2020.2.3,Win32,60,,,,,,,,,,,,,,,,,,,,,,,,,,,,,,,,,,,,,,,,,,,,,,,,,,,,,,,,,,,,,,,,,,,,,,,,,,,,,,,,0,6,6,4,1,Objects,ceilingfan,Stimuli/Objects/ceilingfan/6897ddb0-bc4e-4f17-aea3-9949ef29e993_300.jpg,,,,,,,,,,,,,,,,,,,,,,,,,,,,,,,,,,,,,,,,,,,,,,,,,,,,,,,,,,,,,,,,,,,,,,,,,,,,,
,,,,,,,,5f378e1794a0ef2151ccf4bf,23,M,R,2020-09-11_11h19.32.425,Hybrid_Search_Task,2020.2.3,Win32,60,,,,,,,,,,,,,,,,,,,,,,,,,,,,,,,,,,,,,,,,,,,,,,,,,,,,,,,,,,,,,,,,,,,,,,,,,,,,,,,,0,7,7,0,1,Objects,ceilingfan,Stimuli/Objects/ceilingfan/1414c675-de2c-42cd-861f-023079543b17_300.jpg,,,,,,,,,,,,,,,,,,,,,,,,,,,,,,,,,,,,,,,,,,,,,,,,,,,,,,,,,,,,,,,,,,,,,,,,,,,,,
,,,,,,,,5f378e1794a0ef2151ccf4bf,23,M,R,2020-09-11_11h19.32.425,Hybrid_Search_Task,2020.2.3,Win32,60,,,,,,,,,,,,,,,,,,,,,,,,,,,,,,,,,,,,,,,,,,,,,,,,,,,,,,,,,,,,,,,,,,,,,,,,,,,,,,,,0,8,8,13,1,Objects,ceilingfan,Stimuli/Objects/ceilingfan/d053bc6d-a624-4aff-82ff-480ec0396d53_300.jpg,,,,,,,,,,,,,,,,,,,,,,,,,,,,,,,,,,,,,,,,,,,,,,,,,,,,,,,,,,,,,,,,,,,,,,,,,,,,,
,,,,,,,,5f378e1794a0ef2151ccf4bf,23,M,R,2020-09-11_11h19.32.425,Hybrid_Search_Task,2020.2.3,Win32,60,,,,,,,,,,,,,,,,,,,,,,,,,,,,,,,,,,,,,,,,,,,,,,,,,,,,,,,,,,,,,,,,,,,,,,,,,,,,,,,,0,9,9,6,1,Objects,ceilingfan,Stimuli/Objects/ceilingfan/a00e7dbe-acad-41ed-b95d-6b5ffbbe4c9a_300.jpg,,,,,,,,,,,,,,,,,,,,,,,,,,,,,,,,,,,,,,,,,,,,,,,,,,,,,,,,,,,,,,,,,,,,,,,,,,,,,
,,,,,,,,5f378e1794a0ef2151ccf4bf,23,M,R,2020-09-11_11h19.32.425,Hybrid_Search_Task,2020.2.3,Win32,60,,,,,,,,,,,,,,,,,,,,,,,,,,,,,,,,,,,,,,,,,,,,,,,,,,,,,,,,,,,,,,,,,,,,,,,,,,,,,,,,0,10,10,1,1,Objects,ceilingfan,Stimuli/Objects/ceilingfan/2664ed9f-c7df-4cde-8866-ed55b2c0277a_300.jpg,,,,,,,,,,,,,,,,,,,,,,,,,,,,,,,,,,,,,,,,,,,,,,,,,,,,,,,,,,,,,,,,,,,,,,,,,,,,,
,,,,,,,,5f378e1794a0ef2151ccf4bf,23,M,R,2020-09-11_11h19.32.425,Hybrid_Search_Task,2020.2.3,Win32,60,,,,,,,,,,,,,,,,,,,,,,,,,,,,,,,,,,,,,,,,,,,,,,,,,,,,,,,,,,,,,,,,,,,,,,,,,,,,,,,,0,11,11,15,1,Objects,ceilingfan,Stimuli/Objects/ceilingfan/e4773f88-a985-4897-af63-345fe588f2e8_300.jpg,,,,,,,,,,,,,,,,,,,,,,,,,,,,,,,,,,,,,,,,,,,,,,,,,,,,,,,,,,,,,,,,,,,,,,,,,,,,,
,,,,,,,,5f378e1794a0ef2151ccf4bf,23,M,R,2020-09-11_11h19.32.425,Hybrid_Search_Task,2020.2.3,Win32,60,,,,,,,,,,,,,,,,,,,,,,,,,,,,,,,,,,,,,,,,,,,,,,,,,,,,,,,,,,,,,,,,,,,,,,,,,,,,,,,,0,12,12,5,1,Objects,ceilingfan,Stimuli/Objects/ceilingfan/893dea26-1d75-4a59-954b-03ca3439bfbe_300.jpg,,,,,,,,,,,,,,,,,,,,,,,,,,,,,,,,,,,,,,,,,,,,,,,,,,,,,,,,,,,,,,,,,,,,,,,,,,,,,
,,,,,,,,5f378e1794a0ef2151ccf4bf,23,M,R,2020-09-11_11h19.32.425,Hybrid_Search_Task,2020.2.3,Win32,60,,,,,,,,,,,,,,,,,,,,,,,,,,,,,,,,,,,,,,,,,,,,,,,,,,,,,,,,,,,,,,,,,,,,,,,,,,,,,,,,0,13,13,3,1,Objects,ceilingfan,Stimuli/Objects/ceilingfan/6452cd12-10c6-492a-b59c-ffac9f8f4b0c_300.jpg,,,,,,,,,,,,,,,,,,,,,,,,,,,,,,,,,,,,,,,,,,,,,,,,,,,,,,,,,,,,,,,,,,,,,,,,,,,,,
,,,,,,,,5f378e1794a0ef2151ccf4bf,23,M,R,2020-09-11_11h19.32.425,Hybrid_Search_Task,2020.2.3,Win32,60,,,,,,,,,,,,,,,,,,,,,,,,,,,,,,,,,,,,,,,,,,,,,,,,,,,,,,,,,,,,,,,,,,,,,,,,,,,,,,,,0,14,14,10,1,Objects,ceilingfan,Stimuli/Objects/ceilingfan/c0f8fae5-6fed-47bc-a7d7-fcff6f5efa6f_300.jpg,,,,,,,,,,,,,,,,,,,,,,,,,,,,,,,,,,,,,,,,,,,,,,,,,,,,,,,,,,,,,,,,,,,,,,,,,,,,,
,,,,,,,,5f378e1794a0ef2151ccf4bf,23,M,R,2020-09-11_11h19.32.425,Hybrid_Search_Task,2020.2.3,Win32,60,,,,,,,,,,,,,,,,,,,,,,,,,,,,,,,,,,,,,,,,,,,,,,,,,,,,,,,,,,,,,,,,,,,,,,,,,,,,,,,,0,15,15,8,1,Objects,ceilingfan,Stimuli/Objects/ceilingfan/b79928f8-f549-44f9-b63d-8d8298589d17_300.jpg,,,,,,,,,,,,,,,,,,,,,,,,,,,,,,,,,,,,,,,,,,,,,,,,,,,,,,,,,,,,,,,,,,,,,,,,,,,,,
,,,,,,,,5f378e1794a0ef2151ccf4bf,23,M,R,2020-09-11_11h19.32.425,Hybrid_Search_Task,2020.2.3,Win32,60,,,,,,,,,,,,,,,,,,,,,,,,,,,,,,,,,,,,,,,,,,,,,,,,,,,,,,,,,,,,,,,,,,,,,,,,,,,,,,,,0,16,16,12,1,Objects,ceilingfan,Stimuli/Objects/ceilingfan/cc2848e5-1f8e-49af-94b0-8c4d3ea0f488_300.jpg,,,,,,,,,,,,,,,,,,,,,,,,,,,,,,,,,,,,,,,,,,,,,,,,,,,,,,,,,,,,,,,,,,,,,,,,,,,,,
,,,,,,,,5f378e1794a0ef2151ccf4bf,23,M,R,2020-09-11_11h19.32.425,Hybrid_Search_Task,2020.2.3,Win32,60,,,,,,,,,,,,,,,,,,,,,,,,,,,,,,,,,,,,,,,,,,,,,,,,,,,,,,,,,,,,,,,,,,,,,,,,,,,,,,,,,,,,,,,,0,12,12,11,1,StimList/ceilingfan.xls,,,,,,,,,,,,,,,,,,,,,,,,,,,,,,,,,,,,,,,,,,,,,,,,,,,,,,,,,,,,,,,,,,,,,,,
,,,,,,,,5f378e1794a0ef2151ccf4bf,23,M,R,2020-09-11_11h19.32.425,Hybrid_Search_Task,2020.2.3,Win32,60,,,,,,,,,,,,,,,,,,,,,,,,,,,,,,,,,,,,,,,,,,,,,,,,,,,,,,,,,,,,,,,,,,,,,,,,,,,,,,,,0,0,0,12,1,Objects,bongo,Stimuli/Objects/bongo/ABONGO13.jpg,,,,,,,,,,,,,,,,,,,,,,,,,,,,,,,,,,,,,,,,,,,,,,,,,,,,,,,,,,,,,,,,,,,,,,,,,,,,,
,,,,,,,,5f378e1794a0ef2151ccf4bf,23,M,R,2020-09-11_11h19.32.425,Hybrid_Search_Task,2020.2.3,Win32,60,,,,,,,,,,,,,,,,,,,,,,,,,,,,,,,,,,,,,,,,,,,,,,,,,,,,,,,,,,,,,,,,,,,,,,,,,,,,,,,,0,1,1,13,1,Objects,bongo,Stimuli/Objects/bongo/ABONGO22.jpg,,,,,,,,,,,,,,,,,,,,,,,,,,,,,,,,,,,,,,,,,,,,,,,,,,,,,,,,,,,,,,,,,,,,,,,,,,,,,
,,,,,,,,5f378e1794a0ef2151ccf4bf,23,M,R,2020-09-11_11h19.32.425,Hybrid_Search_Task,2020.2.3,Win32,60,,,,,,,,,,,,,,,,,,,,,,,,,,,,,,,,,,,,,,,,,,,,,,,,,,,,,,,,,,,,,,,,,,,,,,,,,,,,,,,,0,2,2,6,1,Objects,bongo,Stimuli/Objects/bongo/26390697.thl.jpg,,,,,,,,,,,,,,,,,,,,,,,,,,,,,,,,,,,,,,,,,,,,,,,,,,,,,,,,,,,,,,,,,,,,,,,,,,,,,
,,,,,,,,5f378e1794a0ef2151ccf4bf,23,M,R,2020-09-11_11h19.32.425,Hybrid_Search_Task,2020.2.3,Win32,60,,,,,,,,,,,,,,,,,,,,,,,,,,,,,,,,,,,,,,,,,,,,,,,,,,,,,,,,,,,,,,,,,,,,,,,,,,,,,,,,0,3,3,3,1,Objects,bongo,Stimuli/Objects/bongo/26390661.thl.jpg,,,,,,,,,,,,,,,,,,,,,,,,,,,,,,,,,,,,,,,,,,,,,,,,,,,,,,,,,,,,,,,,,,,,,,,,,,,,,
