instrResp1.keys,instrResp1.rt,instr1_loop.thisRepN,instr1_loop.thisTrialN,instr1_loop.thisN,instr1_loop.thisIndex,instr1_loop.ran,instrOrd1,participant,age,gender,handedness,date,expName,psychopyVersion,OS,frameRate,instrResp5.keys,instrResp5.rt,instrResp6.keys,instrResp6.rt,instrResp3.keys,instrResp3.rt,instr2_loop.thisRepN,instr2_loop.thisTrialN,instr2_loop.thisN,instr2_loop.thisIndex,instr2_loop.ran,instrOrd2,instrEGresp.keys,instrEGresp.rt,instrHint2Resp.keys,instrHint2Resp.rt,instrRespSCH.keys,instr3_loop.thisRepN,instr3_loop.thisTrialN,instr3_loop.thisN,instr3_loop.thisIndex,instr3_loop.ran,instrOrd3,instrHint3Resp.keys,instrHint3Resp.rt,instrResp10.keys,instrResp10.rt,pStudy_loop.thisRepN,pStudy_loop.thisTrialN,pStudy_loop.thisN,pStudy_loop.thisIndex,pStudy_loop.ran,pTarg,psPresen_loop.thisRepN,psPresen_loop.thisTrialN,psPresen_loop.thisN,psPresen_loop.thisIndex,psPresen_loop.ran,ptHint_loop.thisRepN,ptHint_loop.thisTrialN,ptHint_loop.thisN,ptHint_loop.thisIndex,ptHint_loop.ran,pTestResp.keys,pTestResp.corr,pTestResp.rt,pTest_loop.thisRepN,pTest_loop.thisTrialN,pTest_loop.thisN,pTest_loop.thisIndex,pTest_loop.ran,ptStim,pCorAns,pTBR_loop.thisRepN,pTBR_loop.thisTrialN,pTBR_loop.thisN,pTBR_loop.thisIndex,pTBR_loop.ran,psResp.keys,psResp.corr,psResp.rt,pSearch_loop.thisRepN,pSearch_loop.thisTrialN,pSearch_loop.thisN,pSearch_loop.thisIndex,pSearch_loop.ran,pStim,practice_loop.thisRepN,practice_loop.thisTrialN,practice_loop.thisN,practice_loop.thisIndex,practice_loop.ran,pStudyOrd,pTest1,pTest2,pTest3,pSearch,expStaResp.keys,expStaResp.rt,stim17_loop.thisRepN,stim17_loop.thisTrialN,stim17_loop.thisN,stim17_loop.thisIndex,stim17_loop.ran,cate,subCate,stimulus,sub30_loop.thisRepN,sub30_loop.thisTrialN,sub30_loop.thisN,sub30_loop.thisIndex,sub30_loop.ran,stimSubCate,altDistrStim_loop.thisRepN,altDistrStim_loop.thisTrialN,altDistrStim_loop.thisN,altDistrStim_loop.thisIndex,altDistrStim_loop.ran,distr_loop.thisRepN,distr_loop.thisTrialN,distr_loop.thisN,distr_loop.thisIndex,distr_loop.ran,chooseDistr_loop.thisRepN,chooseDistr_loop.thisTrialN,chooseDistr_loop.thisN,chooseDistr_loop.thisIndex,chooseDistr_loop.ran,distrIndx,study_loop.thisRepN,study_loop.thisTrialN,study_loop.thisN,study_loop.thisIndex,study_loop.ran,study_presen.thisRepN,study_presen.thisTrialN,study_presen.thisN,study_presen.thisIndex,study_presen.ran,testHint_presen.thisRepN,testHint_presen.thisTrialN,testHint_presen.thisN,testHint_presen.thisIndex,testHint_presen.ran,testResp.keys,testResp.corr,testResp.rt,testsize,condTest,test_loop.thisRepN,test_loop.thisTrialN,test_loop.thisN,test_loop.thisIndex,test_loop.ran,testIndx,TBR_loop.thisRepN,TBR_loop.thisTrialN,TBR_loop.thisN,TBR_loop.thisIndex,TBR_loop.ran,schResp.keys,schResp.corr,setsize,subCategory,category,cond,stimImg,sch_loop.thisRepN,sch_loop.thisTrialN,sch_loop.thisN,sch_loop.thisIndex,sch_loop.ran,trialIndx,schResp.rt,brkResp.keys,brkResp.rt,blockOrd.thisRepN,blockOrd.thisTrialN,blockOrd.thisN,blockOrd.thisIndex,blockOrd.ran,stimCateList,stimCate,testOrd
space,14.74354,0,0,0,0,1,Instructions/instr1.png,5e18552a51c080000e5d59ec,20,M,R,2020-09-09_10h38.40.132,Hybrid_Search_Task,2020.2.3,Win32,60,,,,,,,,,,,,,,,,,,,,,,,,,,,,,,,,,,,,,,,,,,,,,,,,,,,,,,,,,,,,,,,,,,,,,,,,,,,,,,,,,,,,,,,,,,,,,,,,,,,,,,,,,,,,,,,,,,,,,,,,,,,,,,,,,,,,,,,,,,,,,,,,,,,,,,,,,,,,,,,,,,,,
space,7.22892,0,1,1,1,1,Instructions/instr2.png,5e18552a51c080000e5d59ec,20,M,R,2020-09-09_10h38.40.132,Hybrid_Search_Task,2020.2.3,Win32,60,,,,,,,,,,,,,,,,,,,,,,,,,,,,,,,,,,,,,,,,,,,,,,,,,,,,,,,,,,,,,,,,,,,,,,,,,,,,,,,,,,,,,,,,,,,,,,,,,,,,,,,,,,,,,,,,,,,,,,,,,,,,,,,,,,,,,,,,,,,,,,,,,,,,,,,,,,,,,,,,,,,,
space,6.39007,0,2,2,2,1,Instructions/instr3.png,5e18552a51c080000e5d59ec,20,M,R,2020-09-09_10h38.40.132,Hybrid_Search_Task,2020.2.3,Win32,60,,,,,,,,,,,,,,,,,,,,,,,,,,,,,,,,,,,,,,,,,,,,,,,,,,,,,,,,,,,,,,,,,,,,,,,,,,,,,,,,,,,,,,,,,,,,,,,,,,,,,,,,,,,,,,,,,,,,,,,,,,,,,,,,,,,,,,,,,,,,,,,,,,,,,,,,,,,,,,,,,,,,
space,13.874965,0,3,3,3,1,Instructions/instr4.png,5e18552a51c080000e5d59ec,20,M,R,2020-09-09_10h38.40.132,Hybrid_Search_Task,2020.2.3,Win32,60,,,,,,,,,,,,,,,,,,,,,,,,,,,,,,,,,,,,,,,,,,,,,,,,,,,,,,,,,,,,,,,,,,,,,,,,,,,,,,,,,,,,,,,,,,,,,,,,,,,,,,,,,,,,,,,,,,,,,,,,,,,,,,,,,,,,,,,,,,,,,,,,,,,,,,,,,,,,,,,,,,,,
,,,,,,,,5e18552a51c080000e5d59ec,20,M,R,2020-09-09_10h38.40.132,Hybrid_Search_Task,2020.2.3,Win32,60,z,12.459175,m,2.119355,space,6.1777,0,0,0,0,1,Instructions/instr7.png,,,,,,,,,,,,,,,,,,,,,,,,,,,,,,,,,,,,,,,,,,,,,,,,,,,,,,,,,,,,,,,,,,,,,,,,,,,,,,,,,,,,,,,,,,,,,,,,,,,,,,,,,,,,,,,,,,,,,,,,,,,,,,,,,,,,,,,,,,,,,,,,,,,,,,,,
,,,,,,,,5e18552a51c080000e5d59ec,20,M,R,2020-09-09_10h38.40.132,Hybrid_Search_Task,2020.2.3,Win32,60,,,,,space,12.292585,0,1,1,1,1,Instructions/instr8.png,,,,,,,,,,,,,,,,,,,,,,,,,,,,,,,,,,,,,,,,,,,,,,,,,,,,,,,,,,,,,,,,,,,,,,,,,,,,,,,,,,,,,,,,,,,,,,,,,,,,,,,,,,,,,,,,,,,,,,,,,,,,,,,,,,,,,,,,,,,,,,,,,,,,,,,,
,,,,,,,,5e18552a51c080000e5d59ec,20,M,R,2020-09-09_10h38.40.132,Hybrid_Search_Task,2020.2.3,Win32,60,,,,,space,8.57826,0,2,2,2,1,Instructions/instr9.png,,,,,,,,,,,,,,,,,,,,,,,,,,,,,,,,,,,,,,,,,,,,,,,,,,,,,,,,,,,,,,,,,,,,,,,,,,,,,,,,,,,,,,,,,,,,,,,,,,,,,,,,,,,,,,,,,,,,,,,,,,,,,,,,,,,,,,,,,,,,,,,,,,,,,,,,
,,,,,,,,5e18552a51c080000e5d59ec,20,M,R,2020-09-09_10h38.40.132,Hybrid_Search_Task,2020.2.3,Win32,60,,,,,,,,,,,,,m,3.13559,space,3.803995,,0,0,0,1,1,Instructions/s3.jpg,,,,,,,,,,,,,,,,,,,,,,,,,,,,,,,,,,,,,,,,,,,,,,,,,,,,,,,,,,,,,,,,,,,,,,,,,,,,,,,,,,,,,,,,,,,,,,,,,,,,,,,,,,,,,,,,,,,,,,,,,,,,,,,,,,,,,,,,,,,,,
,,,,,,,,5e18552a51c080000e5d59ec,20,M,R,2020-09-09_10h38.40.132,Hybrid_Search_Task,2020.2.3,Win32,60,,,,,,,,,,,,,,,,,,0,1,1,0,1,Instructions/s2.jpg,,,,,,,,,,,,,,,,,,,,,,,,,,,,,,,,,,,,,,,,,,,,,,,,,,,,,,,,,,,,,,,,,,,,,,,,,,,,,,,,,,,,,,,,,,,,,,,,,,,,,,,,,,,,,,,,,,,,,,,,,,,,,,,,,,,,,,,,,,,,,
,,,,,,,,5e18552a51c080000e5d59ec,20,M,R,2020-09-09_10h38.40.132,Hybrid_Search_Task,2020.2.3,Win32,60,,,,,,,,,,,,,,,,,,,,,,,,space,11.470635,space,4.553575,0,0,0,1,1,Practice/PracTarg/02.jpg,,,,,,,,,,,,,,,,,,,,,,,,,,,,,,,,,,,,,,,,,,,,,,,,,,,,,,,,,,,,,,,,,,,,,,,,,,,,,,,,,,,,,,,,,,,,,,,,,,,,,,,,,,,,,,,,,,,,,,,,,,,,,,,,,,,
,,,,,,,,5e18552a51c080000e5d59ec,20,M,R,2020-09-09_10h38.40.132,Hybrid_Search_Task,2020.2.3,Win32,60,,,,,,,,,,,,,,,,,,,,,,,,,,,,0,1,1,0,1,Practice/PracTarg/01.jpg,,,,,,,,,,,,,,,,,,,,,,,,,,,,,,,,,,,,,,,,,,,,,,,,,,,,,,,,,,,,,,,,,,,,,,,,,,,,,,,,,,,,,,,,,,,,,,,,,,,,,,,,,,,,,,,,,,,,,,,,,,,,,,,,,,,
,,,,,,,,5e18552a51c080000e5d59ec,20,M,R,2020-09-09_10h38.40.132,Hybrid_Search_Task,2020.2.3,Win32,60,,,,,,,,,,,,,,,,,,,,,,,,,,,,,,,,,,0,0,0,0,1,,,,,,,,,,,,,,,,,,,,,,,,,,,,,,,,,,,,,,,,,,,,,,,,,,,,,,,,,,,,,,,,,,,,,,,,,,,,,,,,,,,,,,,,,,,,,,,,,,,,,,,,,,,,,,,,,,,,,,,,,,,,,,
,,,,,,,,5e18552a51c080000e5d59ec,20,M,R,2020-09-09_10h38.40.132,Hybrid_Search_Task,2020.2.3,Win32,60,,,,,,,,,,,,,,,,,,,,,,,,,,,,,,,,,,,,,,,0,0,0,0,1,,,,,,,,,,,,,,,,,,,,,,,,,,,,,,,,,,,,,,,,,,,,,,,,,,,,,,,,,,,,,,,,,,,,,,,,,,,,,,,,,,,,,,,,,,,,,,,,,,,,,,,,,,,,,,,,,,,,,,,,,
,,,,,,,,5e18552a51c080000e5d59ec,20,M,R,2020-09-09_10h38.40.132,Hybrid_Search_Task,2020.2.3,Win32,60,,,,,,,,,,,,,,,,,,,,,,,,,,,,,,,,,,,,,,,,,,,,m,1,1.449895,0,0,0,2,1,Practice/PracTest/01_1.jpg,m,,,,,,,,,,,,,,,,,,,,,,,,,,,,,,,,,,,,,,,,,,,,,,,,,,,,,,,,,,,,,,,,,,,,,,,,,,,,,,,,,,,,,,,,,,,,,,,,,,,,,,,,,,,,,,,
,,,,,,,,5e18552a51c080000e5d59ec,20,M,R,2020-09-09_10h38.40.132,Hybrid_Search_Task,2020.2.3,Win32,60,,,,,,,,,,,,,,,,,,,,,,,,,,,,,,,,,,,,,,,,,,,,z,1,1.106565,0,1,1,1,1,Practice/PracTarg/02.jpg,z,,,,,,,,,,,,,,,,,,,,,,,,,,,,,,,,,,,,,,,,,,,,,,,,,,,,,,,,,,,,,,,,,,,,,,,,,,,,,,,,,,,,,,,,,,,,,,,,,,,,,,,,,,,,,,,
,,,,,,,,5e18552a51c080000e5d59ec,20,M,R,2020-09-09_10h38.40.132,Hybrid_Search_Task,2020.2.3,Win32,60,,,,,,,,,,,,,,,,,,,,,,,,,,,,,,,,,,,,,,,,,,,,z,1,0.82367,0,2,2,0,1,Practice/PracTarg/01.jpg,z,,,,,,,,,,,,,,,,,,,,,,,,,,,,,,,,,,,,,,,,,,,,,,,,,,,,,,,,,,,,,,,,,,,,,,,,,,,,,,,,,,,,,,,,,,,,,,,,,,,,,,,,,,,,,,,
,,,,,,,,5e18552a51c080000e5d59ec,20,M,R,2020-09-09_10h38.40.132,Hybrid_Search_Task,2020.2.3,Win32,60,,,,,,,,,,,,,,,,,,,,,,,,,,,,,,,,,,,,,,,,,,,,m,1,0.882915,0,3,3,3,1,Practice/PracTest/02_1.jpg,m,,,,,,,,,,,,,,,,,,,,,,,,,,,,,,,,,,,,,,,,,,,,,,,,,,,,,,,,,,,,,,,,,,,,,,,,,,,,,,,,,,,,,,,,,,,,,,,,,,,,,,,,,,,,,,,
,,,,,,,,5e18552a51c080000e5d59ec,20,M,R,2020-09-09_10h38.40.132,Hybrid_Search_Task,2020.2.3,Win32,60,,,,,,,,,,,,,,,,,,,,,,,,,,,,,,,,,,,,,,,,,,,,,,,,,,,,,,0,0,0,0,1,,,,,,,,,,,,,,,,,,,,,,,,,,,,,,,,,,,,,,,,,,,,,,,,,,,,,,,,,,,,,,,,,,,,,,,,,,,,,,,,,,,,,,,,,,,,,,,,,,,,,,,,,,
,,,,,,,,5e18552a51c080000e5d59ec,20,M,R,2020-09-09_10h38.40.132,Hybrid_Search_Task,2020.2.3,Win32,60,,,,,,,,,,,,,,,,,,,,,,,,,,,,,,,,,,,,,,,0,0,0,0,1,,,,,,,,,,,,,,,,,,,,,,,,,,,,,,,,,,,,,,,,,,,,,,,,,,,,,,,,,,,,,,,,,,,,,,,,,,,,,,,,,,,,,,,,,,,,,,,,,,,,,,,,,,,,,,,,,,,,,,,,,
,,,,,,,,5e18552a51c080000e5d59ec,20,M,R,2020-09-09_10h38.40.132,Hybrid_Search_Task,2020.2.3,Win32,60,,,,,,,,,,,,,,,,,,,,,,,,,,,,,,,,,,,,,,,,,,,,m,1,7.212315,0,0,0,2,1,Practice/PracTest/01_2.jpg,m,,,,,,,,,,,,,,,,,,,,,,,,,,,,,,,,,,,,,,,,,,,,,,,,,,,,,,,,,,,,,,,,,,,,,,,,,,,,,,,,,,,,,,,,,,,,,,,,,,,,,,,,,,,,,,,
,,,,,,,,5e18552a51c080000e5d59ec,20,M,R,2020-09-09_10h38.40.132,Hybrid_Search_Task,2020.2.3,Win32,60,,,,,,,,,,,,,,,,,,,,,,,,,,,,,,,,,,,,,,,,,,,,z,1,0.894875,0,1,1,1,1,Practice/PracTarg/02.jpg,z,,,,,,,,,,,,,,,,,,,,,,,,,,,,,,,,,,,,,,,,,,,,,,,,,,,,,,,,,,,,,,,,,,,,,,,,,,,,,,,,,,,,,,,,,,,,,,,,,,,,,,,,,,,,,,,
,,,,,,,,5e18552a51c080000e5d59ec,20,M,R,2020-09-09_10h38.40.132,Hybrid_Search_Task,2020.2.3,Win32,60,,,,,,,,,,,,,,,,,,,,,,,,,,,,,,,,,,,,,,,,,,,,z,1,0.62661,0,2,2,0,1,Practice/PracTarg/01.jpg,z,,,,,,,,,,,,,,,,,,,,,,,,,,,,,,,,,,,,,,,,,,,,,,,,,,,,,,,,,,,,,,,,,,,,,,,,,,,,,,,,,,,,,,,,,,,,,,,,,,,,,,,,,,,,,,,
,,,,,,,,5e18552a51c080000e5d59ec,20,M,R,2020-09-09_10h38.40.132,Hybrid_Search_Task,2020.2.3,Win32,60,,,,,,,,,,,,,,,,,,,,,,,,,,,,,,,,,,,,,,,,,,,,m,1,0.600775,0,3,3,3,1,Practice/PracTest/02_2.jpg,m,,,,,,,,,,,,,,,,,,,,,,,,,,,,,,,,,,,,,,,,,,,,,,,,,,,,,,,,,,,,,,,,,,,,,,,,,,,,,,,,,,,,,,,,,,,,,,,,,,,,,,,,,,,,,,,
,,,,,,,,5e18552a51c080000e5d59ec,20,M,R,2020-09-09_10h38.40.132,Hybrid_Search_Task,2020.2.3,Win32,60,,,,,,,,,,,,,,,,,,,,,,,,,,,,,,,,,,,,,,,,,,,,,,,,,,,,,,1,0,1,0,1,,,,,,,,,,,,,,,,,,,,,,,,,,,,,,,,,,,,,,,,,,,,,,,,,,,,,,,,,,,,,,,,,,,,,,,,,,,,,,,,,,,,,,,,,,,,,,,,,,,,,,,,,,
,,,,,,,,5e18552a51c080000e5d59ec,20,M,R,2020-09-09_10h38.40.132,Hybrid_Search_Task,2020.2.3,Win32,60,,,,,,,,,,,,,,,,,,,,,,,,,,,,,,,,,,,,,,,,,,,,,,,,,,,,,,2,0,2,0,1,,,,,,,,,,,,,,,,,,,,,,,,,,,,,,,,,,,,,,,,,,,,,,,,,,,,,,,,,,,,,,,,,,,,,,,,,,,,,,,,,,,,,,,,,,,,,,,,,,,,,,,,,,
,,,,,,,,5e18552a51c080000e5d59ec,20,M,R,2020-09-09_10h38.40.132,Hybrid_Search_Task,2020.2.3,Win32,60,,,,,,,,,,,,,,,,,,,,,,,,,,,,,,,,,,,,,,,,,,,,,,,,,,,,,,3,0,3,0,1,,,,,,,,,,,,,,,,,,,,,,,,,,,,,,,,,,,,,,,,,,,,,,,,,,,,,,,,,,,,,,,,,,,,,,,,,,,,,,,,,,,,,,,,,,,,,,,,,,,,,,,,,,
,,,,,,,,5e18552a51c080000e5d59ec,20,M,R,2020-09-09_10h38.40.132,Hybrid_Search_Task,2020.2.3,Win32,60,,,,,,,,,,,,,,,,,,,,,,,,,,,,,,,,,,,,,,,,,,,,,,,,,,,,,,4,0,4,0,1,,,,,,,,,,,,,,,,,,,,,,,,,,,,,,,,,,,,,,,,,,,,,,,,,,,,,,,,,,,,,,,,,,,,,,,,,,,,,,,,,,,,,,,,,,,,,,,,,,,,,,,,,,
,,,,,,,,5e18552a51c080000e5d59ec,20,M,R,2020-09-09_10h38.40.132,Hybrid_Search_Task,2020.2.3,Win32,60,,,,,,,,,,,,,,,,,,,,,,,,,,,,,,,,,,,,,,,,,,,,,,,,,,,,,m,,,,,,m,1,1.4952,0,0,0,16,1,Practice/PracSearch/11_1.jpg,,,,,,,,,,,,,,,,,,,,,,,,,,,,,,,,,,,,,,,,,,,,,,,,,,,,,,,,,,,,,,,,,,,,,,,,,,,,,,,,,,,,,,,,,,,,,,,,,
,,,,,,,,5e18552a51c080000e5d59ec,20,M,R,2020-09-09_10h38.40.132,Hybrid_Search_Task,2020.2.3,Win32,60,,,,,,,,,,,,,,,,,,,,,,,,,,,,,,,,,,,,,,,,,,,,,,,,,,,,,m,,,,,,,0,,0,1,1,7,1,Practice/PracSearch/2_1.jpg,,,,,,,,,,,,,,,,,,,,,,,,,,,,,,,,,,,,,,,,,,,,,,,,,,,,,,,,,,,,,,,,,,,,,,,,,,,,,,,,,,,,,,,,,,,,,,,,,
,,,,,,,,5e18552a51c080000e5d59ec,20,M,R,2020-09-09_10h38.40.132,Hybrid_Search_Task,2020.2.3,Win32,60,,,,,,,,,,,,,,,,,,,,,,,,,,,,,,,,,,,,,,,,,,,,,,,,,,,,,m,,,,,,,0,,0,2,2,9,1,Practice/PracSearch/2_3.jpg,,,,,,,,,,,,,,,,,,,,,,,,,,,,,,,,,,,,,,,,,,,,,,,,,,,,,,,,,,,,,,,,,,,,,,,,,,,,,,,,,,,,,,,,,,,,,,,,,
,,,,,,,,5e18552a51c080000e5d59ec,20,M,R,2020-09-09_10h38.40.132,Hybrid_Search_Task,2020.2.3,Win32,60,,,,,,,,,,,,,,,,,,,,,,,,,,,,,,,,,,,,,,,,,,,,,,,,,,,,,m,,,,,,,0,,0,3,3,8,1,Practice/PracSearch/2_2.jpg,,,,,,,,,,,,,,,,,,,,,,,,,,,,,,,,,,,,,,,,,,,,,,,,,,,,,,,,,,,,,,,,,,,,,,,,,,,,,,,,,,,,,,,,,,,,,,,,,
,,,,,,,,5e18552a51c080000e5d59ec,20,M,R,2020-09-09_10h38.40.132,Hybrid_Search_Task,2020.2.3,Win32,60,,,,,,,,,,,,,,,,,,,,,,,,,,,,,,,,,,,,,,,,,,,,,,,,,,,,,z,,,,,,,0,,0,4,4,1,1,Practice/PracTarg/02.jpg,,,,,,,,,,,,,,,,,,,,,,,,,,,,,,,,,,,,,,,,,,,,,,,,,,,,,,,,,,,,,,,,,,,,,,,,,,,,,,,,,,,,,,,,,,,,,,,,,
,,,,,,,,5e18552a51c080000e5d59ec,20,M,R,2020-09-09_10h38.40.132,Hybrid_Search_Task,2020.2.3,Win32,60,,,,,,,,,,,,,,,,,,,,,,,,,,,,,,,,,,,,,,,,,,,,,,,,,,,,,m,,,,,,,0,,0,5,5,10,1,Practice/PracSearch/3_1.jpg,,,,,,,,,,,,,,,,,,,,,,,,,,,,,,,,,,,,,,,,,,,,,,,,,,,,,,,,,,,,,,,,,,,,,,,,,,,,,,,,,,,,,,,,,,,,,,,,,
,,,,,,,,5e18552a51c080000e5d59ec,20,M,R,2020-09-09_10h38.40.132,Hybrid_Search_Task,2020.2.3,Win32,60,,,,,,,,,,,,,,,,,,,,,,,,,,,,,,,,,,,,,,,,,,,,,,,,,,,,,m,,,,,,,0,,0,6,6,6,1,Practice/PracSearch/1_3.jpg,,,,,,,,,,,,,,,,,,,,,,,,,,,,,,,,,,,,,,,,,,,,,,,,,,,,,,,,,,,,,,,,,,,,,,,,,,,,,,,,,,,,,,,,,,,,,,,,,
,,,,,,,,5e18552a51c080000e5d59ec,20,M,R,2020-09-09_10h38.40.132,Hybrid_Search_Task,2020.2.3,Win32,60,,,,,,,,,,,,,,,,,,,,,,,,,,,,,,,,,,,,,,,,,,,,,,,,,,,,,m,,,,,,,0,,0,7,7,19,1,Practice/PracSearch/12_2.jpg,,,,,,,,,,,,,,,,,,,,,,,,,,,,,,,,,,,,,,,,,,,,,,,,,,,,,,,,,,,,,,,,,,,,,,,,,,,,,,,,,,,,,,,,,,,,,,,,,
,,,,,,,,5e18552a51c080000e5d59ec,20,M,R,2020-09-09_10h38.40.132,Hybrid_Search_Task,2020.2.3,Win32,60,,,,,,,,,,,,,,,,,,,,,,,,,,,,,,,,,,,,,,,,,,,,,,,,,,,,,m,,,,,,,0,,0,8,8,18,1,Practice/PracSearch/12_1.jpg,,,,,,,,,,,,,,,,,,,,,,,,,,,,,,,,,,,,,,,,,,,,,,,,,,,,,,,,,,,,,,,,,,,,,,,,,,,,,,,,,,,,,,,,,,,,,,,,,
,,,,,,,,5e18552a51c080000e5d59ec,20,M,R,2020-09-09_10h38.40.132,Hybrid_Search_Task,2020.2.3,Win32,60,,,,,,,,,,,,,,,,,,,,,,,,,,,,,,,,,,,,,,,,,,,,,,,,,,,,,z,,,,,,,0,,0,9,9,0,1,Practice/PracTarg/01.jpg,,,,,,,,,,,,,,,,,,,,,,,,,,,,,,,,,,,,,,,,,,,,,,,,,,,,,,,,,,,,,,,,,,,,,,,,,,,,,,,,,,,,,,,,,,,,,,,,,
,,,,,,,,5e18552a51c080000e5d59ec,20,M,R,2020-09-09_10h38.40.132,Hybrid_Search_Task,2020.2.3,Win32,60,,,,,,,,,,,,,,,,,,,,,,,,,,,,,,,,,,,,,,,,,,,,,,,,,,,,,m,,,,,,,0,,0,10,10,11,1,Practice/PracSearch/3_2.jpg,,,,,,,,,,,,,,,,,,,,,,,,,,,,,,,,,,,,,,,,,,,,,,,,,,,,,,,,,,,,,,,,,,,,,,,,,,,,,,,,,,,,,,,,,,,,,,,,,
,,,,,,,,5e18552a51c080000e5d59ec,20,M,R,2020-09-09_10h38.40.132,Hybrid_Search_Task,2020.2.3,Win32,60,,,,,,,,,,,,,,,,,,,,,,,,,,,,,,,,,,,,,,,,,,,,,,,,,,,,,m,,,,,,,0,,0,11,11,4,1,Practice/PracSearch/1_1.jpg,,,,,,,,,,,,,,,,,,,,,,,,,,,,,,,,,,,,,,,,,,,,,,,,,,,,,,,,,,,,,,,,,,,,,,,,,,,,,,,,,,,,,,,,,,,,,,,,,
,,,,,,,,5e18552a51c080000e5d59ec,20,M,R,2020-09-09_10h38.40.132,Hybrid_Search_Task,2020.2.3,Win32,60,,,,,,,,,,,,,,,,,,,,,,,,,,,,,,,,,,,,,,,,,,,,,,,,,,,,,m,,,,,,,0,,0,12,12,5,1,Practice/PracSearch/1_2.jpg,,,,,,,,,,,,,,,,,,,,,,,,,,,,,,,,,,,,,,,,,,,,,,,,,,,,,,,,,,,,,,,,,,,,,,,,,,,,,,,,,,,,,,,,,,,,,,,,,
,,,,,,,,5e18552a51c080000e5d59ec,20,M,R,2020-09-09_10h38.40.132,Hybrid_Search_Task,2020.2.3,Win32,60,,,,,,,,,,,,,,,,,,,,,,,,,,,,,,,,,,,,,,,,,,,,,,,,,,,,,m,,,,,,,0,,0,13,13,12,1,Practice/PracSearch/3_3.jpg,,,,,,,,,,,,,,,,,,,,,,,,,,,,,,,,,,,,,,,,,,,,,,,,,,,,,,,,,,,,,,,,,,,,,,,,,,,,,,,,,,,,,,,,,,,,,,,,,
,,,,,,,,5e18552a51c080000e5d59ec,20,M,R,2020-09-09_10h38.40.132,Hybrid_Search_Task,2020.2.3,Win32,60,,,,,,,,,,,,,,,,,,,,,,,,,,,,,,,,,,,,,,,,,,,,,,,,,,,,,z,,,,,,,0,,0,14,14,3,1,Practice/PracTarg/02.jpg,,,,,,,,,,,,,,,,,,,,,,,,,,,,,,,,,,,,,,,,,,,,,,,,,,,,,,,,,,,,,,,,,,,,,,,,,,,,,,,,,,,,,,,,,,,,,,,,,
,,,,,,,,5e18552a51c080000e5d59ec,20,M,R,2020-09-09_10h38.40.132,Hybrid_Search_Task,2020.2.3,Win32,60,,,,,,,,,,,,,,,,,,,,,,,,,,,,,,,,,,,,,,,,,,,,,,,,,,,,,m,,,,,,,0,,0,15,15,17,1,Practice/PracSearch/11_2.jpg,,,,,,,,,,,,,,,,,,,,,,,,,,,,,,,,,,,,,,,,,,,,,,,,,,,,,,,,,,,,,,,,,,,,,,,,,,,,,,,,,,,,,,,,,,,,,,,,,
,,,,,,,,5e18552a51c080000e5d59ec,20,M,R,2020-09-09_10h38.40.132,Hybrid_Search_Task,2020.2.3,Win32,60,,,,,,,,,,,,,,,,,,,,,,,,,,,,,,,,,,,,,,,,,,,,,,,,,,,,,m,,,,,,,0,,0,16,16,15,1,Practice/PracSearch/10_3.jpg,,,,,,,,,,,,,,,,,,,,,,,,,,,,,,,,,,,,,,,,,,,,,,,,,,,,,,,,,,,,,,,,,,,,,,,,,,,,,,,,,,,,,,,,,,,,,,,,,
,,,,,,,,5e18552a51c080000e5d59ec,20,M,R,2020-09-09_10h38.40.132,Hybrid_Search_Task,2020.2.3,Win32,60,,,,,,,,,,,,,,,,,,,,,,,,,,,,,,,,,,,,,,,,,,,,,,,,,,,,,m,,,,,,,0,,0,17,17,13,1,Practice/PracSearch/10_1.jpg,,,,,,,,,,,,,,,,,,,,,,,,,,,,,,,,,,,,,,,,,,,,,,,,,,,,,,,,,,,,,,,,,,,,,,,,,,,,,,,,,,,,,,,,,,,,,,,,,
,,,,,,,,5e18552a51c080000e5d59ec,20,M,R,2020-09-09_10h38.40.132,Hybrid_Search_Task,2020.2.3,Win32,60,,,,,,,,,,,,,,,,,,,,,,,,,,,,,,,,,,,,,,,,,,,,,,,,,,,,,m,,,,,,,0,,0,18,18,14,1,Practice/PracSearch/10_2.jpg,,,,,,,,,,,,,,,,,,,,,,,,,,,,,,,,,,,,,,,,,,,,,,,,,,,,,,,,,,,,,,,,,,,,,,,,,,,,,,,,,,,,,,,,,,,,,,,,,
,,,,,,,,5e18552a51c080000e5d59ec,20,M,R,2020-09-09_10h38.40.132,Hybrid_Search_Task,2020.2.3,Win32,60,,,,,,,,,,,,,,,,,,,,,,,,,,,,,,,,,,,,,,,,,,,,,,,,,,,,,z,,,,,,,0,,0,19,19,2,1,Practice/PracTarg/01.jpg,,,,,,,,,,,,,,,,,,,,,,,,,,,,,,,,,,,,,,,,,,,,,,,,,,,,,,,,,,,,,,,,,,,,,,,,,,,,,,,,,,,,,,,,,,,,,,,,,
,,,,,,,,5e18552a51c080000e5d59ec,20,M,R,2020-09-09_10h38.40.132,Hybrid_Search_Task,2020.2.3,Win32,60,,,,,,,,,,,,,,,,,,,,,,,,,,,,,,,,,,,,,,,,,,,,,,,,,,,,,,,,,,,,,,,,,,,,0,0,0,0,1,Practice/pStudy2.xlsx,Practice/pTest2_1.xlsx,Practice/pTest2_2.xlsx,Practice/pTest2_3.xlsx,Practice/pSearch2.xlsx,,,,,,,,,,,,,,,,,,,,,,,,,,,,,,,,,,,,,,,,,,,,,,,,,,,,,,,,,,,,,,,,,,,,,,,,,,,,,,,,,,,,,,,
,,,,,,,,5e18552a51c080000e5d59ec,20,M,R,2020-09-09_10h38.40.132,Hybrid_Search_Task,2020.2.3,Win32,60,,,,,,,,,,,,,,,,,,,,,,,,,,,,,,,,,,,,,,,,,,,,,,,,,,,,,,,,,,,,,,,,,,,,,,,,,,,,,,space,10.199345,0,0,0,8,1,Objects,phone,Stimuli/Objects/phone/26379371.thl.jpg,,,,,,,,,,,,,,,,,,,,,,,,,,,,,,,,,,,,,,,,,,,,,,,,,,,,,,,,,,,,,,,,,,,,,,,,,,,,,
,,,,,,,,5e18552a51c080000e5d59ec,20,M,R,2020-09-09_10h38.40.132,Hybrid_Search_Task,2020.2.3,Win32,60,,,,,,,,,,,,,,,,,,,,,,,,,,,,,,,,,,,,,,,,,,,,,,,,,,,,,,,,,,,,,,,,,,,,,,,,,,,,,,,,0,1,1,9,1,Objects,phone,Stimuli/Objects/phone/26442658.thl.jpg,,,,,,,,,,,,,,,,,,,,,,,,,,,,,,,,,,,,,,,,,,,,,,,,,,,,,,,,,,,,,,,,,,,,,,,,,,,,,
,,,,,,,,5e18552a51c080000e5d59ec,20,M,R,2020-09-09_10h38.40.132,Hybrid_Search_Task,2020.2.3,Win32,60,,,,,,,,,,,,,,,,,,,,,,,,,,,,,,,,,,,,,,,,,,,,,,,,,,,,,,,,,,,,,,,,,,,,,,,,,,,,,,,,0,2,2,7,1,Objects,phone,Stimuli/Objects/phone/26379359.thl.jpg,,,,,,,,,,,,,,,,,,,,,,,,,,,,,,,,,,,,,,,,,,,,,,,,,,,,,,,,,,,,,,,,,,,,,,,,,,,,,
,,,,,,,,5e18552a51c080000e5d59ec,20,M,R,2020-09-09_10h38.40.132,Hybrid_Search_Task,2020.2.3,Win32,60,,,,,,,,,,,,,,,,,,,,,,,,,,,,,,,,,,,,,,,,,,,,,,,,,,,,,,,,,,,,,,,,,,,,,,,,,,,,,,,,0,3,3,15,1,Objects,phone,Stimuli/Objects/phone/Atelephone2.jpg,,,,,,,,,,,,,,,,,,,,,,,,,,,,,,,,,,,,,,,,,,,,,,,,,,,,,,,,,,,,,,,,,,,,,,,,,,,,,
,,,,,,,,5e18552a51c080000e5d59ec,20,M,R,2020-09-09_10h38.40.132,Hybrid_Search_Task,2020.2.3,Win32,60,,,,,,,,,,,,,,,,,,,,,,,,,,,,,,,,,,,,,,,,,,,,,,,,,,,,,,,,,,,,,,,,,,,,,,,,,,,,,,,,0,4,4,10,1,Objects,phone,Stimuli/Objects/phone/8047915.thl.jpg,,,,,,,,,,,,,,,,,,,,,,,,,,,,,,,,,,,,,,,,,,,,,,,,,,,,,,,,,,,,,,,,,,,,,,,,,,,,,
,,,,,,,,5e18552a51c080000e5d59ec,20,M,R,2020-09-09_10h38.40.132,Hybrid_Search_Task,2020.2.3,Win32,60,,,,,,,,,,,,,,,,,,,,,,,,,,,,,,,,,,,,,,,,,,,,,,,,,,,,,,,,,,,,,,,,,,,,,,,,,,,,,,,,0,5,5,16,1,Objects,phone,Stimuli/Objects/phone/Atelephone4.jpg,,,,,,,,,,,,,,,,,,,,,,,,,,,,,,,,,,,,,,,,,,,,,,,,,,,,,,,,,,,,,,,,,,,,,,,,,,,,,
,,,,,,,,5e18552a51c080000e5d59ec,20,M,R,2020-09-09_10h38.40.132,Hybrid_Search_Task,2020.2.3,Win32,60,,,,,,,,,,,,,,,,,,,,,,,,,,,,,,,,,,,,,,,,,,,,,,,,,,,,,,,,,,,,,,,,,,,,,,,,,,,,,,,,0,6,6,3,1,Objects,phone,Stimuli/Objects/phone/26378271.thl.jpg,,,,,,,,,,,,,,,,,,,,,,,,,,,,,,,,,,,,,,,,,,,,,,,,,,,,,,,,,,,,,,,,,,,,,,,,,,,,,
,,,,,,,,5e18552a51c080000e5d59ec,20,M,R,2020-09-09_10h38.40.132,Hybrid_Search_Task,2020.2.3,Win32,60,,,,,,,,,,,,,,,,,,,,,,,,,,,,,,,,,,,,,,,,,,,,,,,,,,,,,,,,,,,,,,,,,,,,,,,,,,,,,,,,0,7,7,2,1,Objects,phone,Stimuli/Objects/phone/26377754.thl.jpg,,,,,,,,,,,,,,,,,,,,,,,,,,,,,,,,,,,,,,,,,,,,,,,,,,,,,,,,,,,,,,,,,,,,,,,,,,,,,
,,,,,,,,5e18552a51c080000e5d59ec,20,M,R,2020-09-09_10h38.40.132,Hybrid_Search_Task,2020.2.3,Win32,60,,,,,,,,,,,,,,,,,,,,,,,,,,,,,,,,,,,,,,,,,,,,,,,,,,,,,,,,,,,,,,,,,,,,,,,,,,,,,,,,0,8,8,0,1,Objects,phone,Stimuli/Objects/phone/22831140.thl.jpg,,,,,,,,,,,,,,,,,,,,,,,,,,,,,,,,,,,,,,,,,,,,,,,,,,,,,,,,,,,,,,,,,,,,,,,,,,,,,
,,,,,,,,5e18552a51c080000e5d59ec,20,M,R,2020-09-09_10h38.40.132,Hybrid_Search_Task,2020.2.3,Win32,60,,,,,,,,,,,,,,,,,,,,,,,,,,,,,,,,,,,,,,,,,,,,,,,,,,,,,,,,,,,,,,,,,,,,,,,,,,,,,,,,0,9,9,5,1,Objects,phone,Stimuli/Objects/phone/26379320.thl.jpg,,,,,,,,,,,,,,,,,,,,,,,,,,,,,,,,,,,,,,,,,,,,,,,,,,,,,,,,,,,,,,,,,,,,,,,,,,,,,
,,,,,,,,5e18552a51c080000e5d59ec,20,M,R,2020-09-09_10h38.40.132,Hybrid_Search_Task,2020.2.3,Win32,60,,,,,,,,,,,,,,,,,,,,,,,,,,,,,,,,,,,,,,,,,,,,,,,,,,,,,,,,,,,,,,,,,,,,,,,,,,,,,,,,0,10,10,6,1,Objects,phone,Stimuli/Objects/phone/26379340.thl.jpg,,,,,,,,,,,,,,,,,,,,,,,,,,,,,,,,,,,,,,,,,,,,,,,,,,,,,,,,,,,,,,,,,,,,,,,,,,,,,
,,,,,,,,5e18552a51c080000e5d59ec,20,M,R,2020-09-09_10h38.40.132,Hybrid_Search_Task,2020.2.3,Win32,60,,,,,,,,,,,,,,,,,,,,,,,,,,,,,,,,,,,,,,,,,,,,,,,,,,,,,,,,,,,,,,,,,,,,,,,,,,,,,,,,0,11,11,4,1,Objects,phone,Stimuli/Objects/phone/26378886.thl.jpg,,,,,,,,,,,,,,,,,,,,,,,,,,,,,,,,,,,,,,,,,,,,,,,,,,,,,,,,,,,,,,,,,,,,,,,,,,,,,
,,,,,,,,5e18552a51c080000e5d59ec,20,M,R,2020-09-09_10h38.40.132,Hybrid_Search_Task,2020.2.3,Win32,60,,,,,,,,,,,,,,,,,,,,,,,,,,,,,,,,,,,,,,,,,,,,,,,,,,,,,,,,,,,,,,,,,,,,,,,,,,,,,,,,0,12,12,14,1,Objects,phone,Stimuli/Objects/phone/AOFFPHON3.jpg,,,,,,,,,,,,,,,,,,,,,,,,,,,,,,,,,,,,,,,,,,,,,,,,,,,,,,,,,,,,,,,,,,,,,,,,,,,,,
,,,,,,,,5e18552a51c080000e5d59ec,20,M,R,2020-09-09_10h38.40.132,Hybrid_Search_Task,2020.2.3,Win32,60,,,,,,,,,,,,,,,,,,,,,,,,,,,,,,,,,,,,,,,,,,,,,,,,,,,,,,,,,,,,,,,,,,,,,,,,,,,,,,,,0,13,13,1,1,Objects,phone,Stimuli/Objects/phone/26377681.thl.jpg,,,,,,,,,,,,,,,,,,,,,,,,,,,,,,,,,,,,,,,,,,,,,,,,,,,,,,,,,,,,,,,,,,,,,,,,,,,,,
,,,,,,,,5e18552a51c080000e5d59ec,20,M,R,2020-09-09_10h38.40.132,Hybrid_Search_Task,2020.2.3,Win32,60,,,,,,,,,,,,,,,,,,,,,,,,,,,,,,,,,,,,,,,,,,,,,,,,,,,,,,,,,,,,,,,,,,,,,,,,,,,,,,,,0,14,14,13,1,Objects,phone,Stimuli/Objects/phone/AFAXPHON6.jpg,,,,,,,,,,,,,,,,,,,,,,,,,,,,,,,,,,,,,,,,,,,,,,,,,,,,,,,,,,,,,,,,,,,,,,,,,,,,,
,,,,,,,,5e18552a51c080000e5d59ec,20,M,R,2020-09-09_10h38.40.132,Hybrid_Search_Task,2020.2.3,Win32,60,,,,,,,,,,,,,,,,,,,,,,,,,,,,,,,,,,,,,,,,,,,,,,,,,,,,,,,,,,,,,,,,,,,,,,,,,,,,,,,,0,15,15,12,1,Objects,phone,Stimuli/Objects/phone/ABLUPHONE.jpg,,,,,,,,,,,,,,,,,,,,,,,,,,,,,,,,,,,,,,,,,,,,,,,,,,,,,,,,,,,,,,,,,,,,,,,,,,,,,
,,,,,,,,5e18552a51c080000e5d59ec,20,M,R,2020-09-09_10h38.40.132,Hybrid_Search_Task,2020.2.3,Win32,60,,,,,,,,,,,,,,,,,,,,,,,,,,,,,,,,,,,,,,,,,,,,,,,,,,,,,,,,,,,,,,,,,,,,,,,,,,,,,,,,0,16,16,11,1,Objects,phone,Stimuli/Objects/phone/8081131.thl.jpg,,,,,,,,,,,,,,,,,,,,,,,,,,,,,,,,,,,,,,,,,,,,,,,,,,,,,,,,,,,,,,,,,,,,,,,,,,,,,
,,,,,,,,5e18552a51c080000e5d59ec,20,M,R,2020-09-09_10h38.40.132,Hybrid_Search_Task,2020.2.3,Win32,60,,,,,,,,,,,,,,,,,,,,,,,,,,,,,,,,,,,,,,,,,,,,,,,,,,,,,,,,,,,,,,,,,,,,,,,,,,,,,,,,,,,,,,,,0,0,0,25,1,StimList/phone.xls,,,,,,,,,,,,,,,,,,,,,,,,,,,,,,,,,,,,,,,,,,,,,,,,,,,,,,,,,,,,,,,,,,,,,,,
,,,,,,,,5e18552a51c080000e5d59ec,20,M,R,2020-09-09_10h38.40.132,Hybrid_Search_Task,2020.2.3,Win32,60,,,,,,,,,,,,,,,,,,,,,,,,,,,,,,,,,,,,,,,,,,,,,,,,,,,,,,,,,,,,,,,,,,,,,,,,,,,,,,,,0,0,0,3,1,Objects,handbag,Stimuli/Objects/handbag/Ahandbag38.jpg,,,,,,,,,,,,,,,,,,,,,,,,,,,,,,,,,,,,,,,,,,,,,,,,,,,,,,,,,,,,,,,,,,,,,,,,,,,,,
,,,,,,,,5e18552a51c080000e5d59ec,20,M,R,2020-09-09_10h38.40.132,Hybrid_Search_Task,2020.2.3,Win32,60,,,,,,,,,,,,,,,,,,,,,,,,,,,,,,,,,,,,,,,,,,,,,,,,,,,,,,,,,,,,,,,,,,,,,,,,,,,,,,,,0,1,1,9,1,Objects,handbag,Stimuli/Objects/handbag/AHANDBAG9.jpg,,,,,,,,,,,,,,,,,,,,,,,,,,,,,,,,,,,,,,,,,,,,,,,,,,,,,,,,,,,,,,,,,,,,,,,,,,,,,
,,,,,,,,5e18552a51c080000e5d59ec,20,M,R,2020-09-09_10h38.40.132,Hybrid_Search_Task,2020.2.3,Win32,60,,,,,,,,,,,,,,,,,,,,,,,,,,,,,,,,,,,,,,,,,,,,,,,,,,,,,,,,,,,,,,,,,,,,,,,,,,,,,,,,0,2,2,8,1,Objects,handbag,Stimuli/Objects/handbag/Ahandbag74.jpg,,,,,,,,,,,,,,,,,,,,,,,,,,,,,,,,,,,,,,,,,,,,,,,,,,,,,,,,,,,,,,,,,,,,,,,,,,,,,
,,,,,,,,5e18552a51c080000e5d59ec,20,M,R,2020-09-09_10h38.40.132,Hybrid_Search_Task,2020.2.3,Win32,60,,,,,,,,,,,,,,,,,,,,,,,,,,,,,,,,,,,,,,,,,,,,,,,,,,,,,,,,,,,,,,,,,,,,,,,,,,,,,,,,0,3,3,10,1,Objects,handbag,Stimuli/Objects/handbag/APURSE24.jpg,,,,,,,,,,,,,,,,,,,,,,,,,,,,,,,,,,,,,,,,,,,,,,,,,,,,,,,,,,,,,,,,,,,,,,,,,,,,,
,,,,,,,,5e18552a51c080000e5d59ec,20,M,R,2020-09-09_10h38.40.132,Hybrid_Search_Task,2020.2.3,Win32,60,,,,,,,,,,,,,,,,,,,,,,,,,,,,,,,,,,,,,,,,,,,,,,,,,,,,,,,,,,,,,,,,,,,,,,,,,,,,,,,,0,4,4,2,1,Objects,handbag,Stimuli/Objects/handbag/Ahandbag31.jpg,,,,,,,,,,,,,,,,,,,,,,,,,,,,,,,,,,,,,,,,,,,,,,,,,,,,,,,,,,,,,,,,,,,,,,,,,,,,,
,,,,,,,,5e18552a51c080000e5d59ec,20,M,R,2020-09-09_10h38.40.132,Hybrid_Search_Task,2020.2.3,Win32,60,,,,,,,,,,,,,,,,,,,,,,,,,,,,,,,,,,,,,,,,,,,,,,,,,,,,,,,,,,,,,,,,,,,,,,,,,,,,,,,,0,5,5,13,1,Objects,handbag,Stimuli/Objects/handbag/APURSE59.jpg,,,,,,,,,,,,,,,,,,,,,,,,,,,,,,,,,,,,,,,,,,,,,,,,,,,,,,,,,,,,,,,,,,,,,,,,,,,,,
,,,,,,,,5e18552a51c080000e5d59ec,20,M,R,2020-09-09_10h38.40.132,Hybrid_Search_Task,2020.2.3,Win32,60,,,,,,,,,,,,,,,,,,,,,,,,,,,,,,,,,,,,,,,,,,,,,,,,,,,,,,,,,,,,,,,,,,,,,,,,,,,,,,,,0,6,6,15,1,Objects,handbag,Stimuli/Objects/handbag/purses.jpg,,,,,,,,,,,,,,,,,,,,,,,,,,,,,,,,,,,,,,,,,,,,,,,,,,,,,,,,,,,,,,,,,,,,,,,,,,,,,
,,,,,,,,5e18552a51c080000e5d59ec,20,M,R,2020-09-09_10h38.40.132,Hybrid_Search_Task,2020.2.3,Win32,60,,,,,,,,,,,,,,,,,,,,,,,,,,,,,,,,,,,,,,,,,,,,,,,,,,,,,,,,,,,,,,,,,,,,,,,,,,,,,,,,0,7,7,7,1,Objects,handbag,Stimuli/Objects/handbag/AHANDBAG7.jpg,,,,,,,,,,,,,,,,,,,,,,,,,,,,,,,,,,,,,,,,,,,,,,,,,,,,,,,,,,,,,,,,,,,,,,,,,,,,,
,,,,,,,,5e18552a51c080000e5d59ec,20,M,R,2020-09-09_10h38.40.132,Hybrid_Search_Task,2020.2.3,Win32,60,,,,,,,,,,,,,,,,,,,,,,,,,,,,,,,,,,,,,,,,,,,,,,,,,,,,,,,,,,,,,,,,,,,,,,,,,,,,,,,,0,8,8,0,1,Objects,handbag,Stimuli/Objects/handbag/Ahandbag13.jpg,,,,,,,,,,,,,,,,,,,,,,,,,,,,,,,,,,,,,,,,,,,,,,,,,,,,,,,,,,,,,,,,,,,,,,,,,,,,,
,,,,,,,,5e18552a51c080000e5d59ec,20,M,R,2020-09-09_10h38.40.132,Hybrid_Search_Task,2020.2.3,Win32,60,,,,,,,,,,,,,,,,,,,,,,,,,,,,,,,,,,,,,,,,,,,,,,,,,,,,,,,,,,,,,,,,,,,,,,,,,,,,,,,,0,9,9,5,1,Objects,handbag,Stimuli/Objects/handbag/AHANDBAG6.jpg,,,,,,,,,,,,,,,,,,,,,,,,,,,,,,,,,,,,,,,,,,,,,,,,,,,,,,,,,,,,,,,,,,,,,,,,,,,,,
,,,,,,,,5e18552a51c080000e5d59ec,20,M,R,2020-09-09_10h38.40.132,Hybrid_Search_Task,2020.2.3,Win32,60,,,,,,,,,,,,,,,,,,,,,,,,,,,,,,,,,,,,,,,,,,,,,,,,,,,,,,,,,,,,,,,,,,,,,,,,,,,,,,,,0,10,10,16,1,Objects,handbag,Stimuli/Objects/handbag/stingray-leather-hobo-handbag-1.jpg,,,,,,,,,,,,,,,,,,,,,,,,,,,,,,,,,,,,,,,,,,,,,,,,,,,,,,,,,,,,,,,,,,,,,,,,,,,,,
,,,,,,,,5e18552a51c080000e5d59ec,20,M,R,2020-09-09_10h38.40.132,Hybrid_Search_Task,2020.2.3,Win32,60,,,,,,,,,,,,,,,,,,,,,,,,,,,,,,,,,,,,,,,,,,,,,,,,,,,,,,,,,,,,,,,,,,,,,,,,,,,,,,,,0,11,11,1,1,Objects,handbag,Stimuli/Objects/handbag/Ahandbag15.jpg,,,,,,,,,,,,,,,,,,,,,,,,,,,,,,,,,,,,,,,,,,,,,,,,,,,,,,,,,,,,,,,,,,,,,,,,,,,,,
,,,,,,,,5e18552a51c080000e5d59ec,20,M,R,2020-09-09_10h38.40.132,Hybrid_Search_Task,2020.2.3,Win32,60,,,,,,,,,,,,,,,,,,,,,,,,,,,,,,,,,,,,,,,,,,,,,,,,,,,,,,,,,,,,,,,,,,,,,,,,,,,,,,,,0,12,12,4,1,Objects,handbag,Stimuli/Objects/handbag/Ahandbag51.jpg,,,,,,,,,,,,,,,,,,,,,,,,,,,,,,,,,,,,,,,,,,,,,,,,,,,,,,,,,,,,,,,,,,,,,,,,,,,,,
,,,,,,,,5e18552a51c080000e5d59ec,20,M,R,2020-09-09_10h38.40.132,Hybrid_Search_Task,2020.2.3,Win32,60,,,,,,,,,,,,,,,,,,,,,,,,,,,,,,,,,,,,,,,,,,,,,,,,,,,,,,,,,,,,,,,,,,,,,,,,,,,,,,,,0,13,13,11,1,Objects,handbag,Stimuli/Objects/handbag/APURSE46.jpg,,,,,,,,,,,,,,,,,,,,,,,,,,,,,,,,,,,,,,,,,,,,,,,,,,,,,,,,,,,,,,,,,,,,,,,,,,,,,
,,,,,,,,5e18552a51c080000e5d59ec,20,M,R,2020-09-09_10h38.40.132,Hybrid_Search_Task,2020.2.3,Win32,60,,,,,,,,,,,,,,,,,,,,,,,,,,,,,,,,,,,,,,,,,,,,,,,,,,,,,,,,,,,,,,,,,,,,,,,,,,,,,,,,0,14,14,14,1,Objects,handbag,Stimuli/Objects/handbag/chicken-purse.jpg,,,,,,,,,,,,,,,,,,,,,,,,,,,,,,,,,,,,,,,,,,,,,,,,,,,,,,,,,,,,,,,,,,,,,,,,,,,,,
,,,,,,,,5e18552a51c080000e5d59ec,20,M,R,2020-09-09_10h38.40.132,Hybrid_Search_Task,2020.2.3,Win32,60,,,,,,,,,,,,,,,,,,,,,,,,,,,,,,,,,,,,,,,,,,,,,,,,,,,,,,,,,,,,,,,,,,,,,,,,,,,,,,,,0,15,15,12,1,Objects,handbag,Stimuli/Objects/handbag/APURSE52.jpg,,,,,,,,,,,,,,,,,,,,,,,,,,,,,,,,,,,,,,,,,,,,,,,,,,,,,,,,,,,,,,,,,,,,,,,,,,,,,
,,,,,,,,5e18552a51c080000e5d59ec,20,M,R,2020-09-09_10h38.40.132,Hybrid_Search_Task,2020.2.3,Win32,60,,,,,,,,,,,,,,,,,,,,,,,,,,,,,,,,,,,,,,,,,,,,,,,,,,,,,,,,,,,,,,,,,,,,,,,,,,,,,,,,0,16,16,6,1,Objects,handbag,Stimuli/Objects/handbag/Ahandbag69.jpg,,,,,,,,,,,,,,,,,,,,,,,,,,,,,,,,,,,,,,,,,,,,,,,,,,,,,,,,,,,,,,,,,,,,,,,,,,,,,
,,,,,,,,5e18552a51c080000e5d59ec,20,M,R,2020-09-09_10h38.40.132,Hybrid_Search_Task,2020.2.3,Win32,60,,,,,,,,,,,,,,,,,,,,,,,,,,,,,,,,,,,,,,,,,,,,,,,,,,,,,,,,,,,,,,,,,,,,,,,,,,,,,,,,,,,,,,,,0,1,1,18,1,StimList/handbag.xls,,,,,,,,,,,,,,,,,,,,,,,,,,,,,,,,,,,,,,,,,,,,,,,,,,,,,,,,,,,,,,,,,,,,,,,
,,,,,,,,5e18552a51c080000e5d59ec,20,M,R,2020-09-09_10h38.40.132,Hybrid_Search_Task,2020.2.3,Win32,60,,,,,,,,,,,,,,,,,,,,,,,,,,,,,,,,,,,,,,,,,,,,,,,,,,,,,,,,,,,,,,,,,,,,,,,,,,,,,,,,0,0,0,2,1,Objects,bowtie,Stimuli/Objects/bowtie/793_699_popup.jpg,,,,,,,,,,,,,,,,,,,,,,,,,,,,,,,,,,,,,,,,,,,,,,,,,,,,,,,,,,,,,,,,,,,,,,,,,,,,,
,,,,,,,,5e18552a51c080000e5d59ec,20,M,R,2020-09-09_10h38.40.132,Hybrid_Search_Task,2020.2.3,Win32,60,,,,,,,,,,,,,,,,,,,,,,,,,,,,,,,,,,,,,,,,,,,,,,,,,,,,,,,,,,,,,,,,,,,,,,,,,,,,,,,,0,1,1,9,1,Objects,bowtie,Stimuli/Objects/bowtie/ABOWTIE7.jpg,,,,,,,,,,,,,,,,,,,,,,,,,,,,,,,,,,,,,,,,,,,,,,,,,,,,,,,,,,,,,,,,,,,,,,,,,,,,,
,,,,,,,,5e18552a51c080000e5d59ec,20,M,R,2020-09-09_10h38.40.132,Hybrid_Search_Task,2020.2.3,Win32,60,,,,,,,,,,,,,,,,,,,,,,,,,,,,,,,,,,,,,,,,,,,,,,,,,,,,,,,,,,,,,,,,,,,,,,,,,,,,,,,,0,2,2,10,1,Objects,bowtie,Stimuli/Objects/bowtie/ABOWTIE8.jpg,,,,,,,,,,,,,,,,,,,,,,,,,,,,,,,,,,,,,,,,,,,,,,,,,,,,,,,,,,,,,,,,,,,,,,,,,,,,,
,,,,,,,,5e18552a51c080000e5d59ec,20,M,R,2020-09-09_10h38.40.132,Hybrid_Search_Task,2020.2.3,Win32,60,,,,,,,,,,,,,,,,,,,,,,,,,,,,,,,,,,,,,,,,,,,,,,,,,,,,,,,,,,,,,,,,,,,,,,,,,,,,,,,,0,3,3,1,1,Objects,bowtie,Stimuli/Objects/bowtie/22613_Bowtie_Clown_Large.jpg,,,,,,,,,,,,,,,,,,,,,,,,,,,,,,,,,,,,,,,,,,,,,,,,,,,,,,,,,,,,,,,,,,,,,,,,,,,,,
,,,,,,,,5e18552a51c080000e5d59ec,20,M,R,2020-09-09_10h38.40.132,Hybrid_Search_Task,2020.2.3,Win32,60,,,,,,,,,,,,,,,,,,,,,,,,,,,,,,,,,,,,,,,,,,,,,,,,,,,,,,,,,,,,,,,,,,,,,,,,,,,,,,,,0,4,4,12,1,Objects,bowtie,Stimuli/Objects/bowtie/bottle green bow tie 300.jpg,,,,,,,,,,,,,,,,,,,,,,,,,,,,,,,,,,,,,,,,,,,,,,,,,,,,,,,,,,,,,,,,,,,,,,,,,,,,,
,,,,,,,,5e18552a51c080000e5d59ec,20,M,R,2020-09-09_10h38.40.132,Hybrid_Search_Task,2020.2.3,Win32,60,,,,,,,,,,,,,,,,,,,,,,,,,,,,,,,,,,,,,,,,,,,,,,,,,,,,,,,,,,,,,,,,,,,,,,,,,,,,,,,,0,5,5,0,1,Objects,bowtie,Stimuli/Objects/bowtie/19778.jpg,,,,,,,,,,,,,,,,,,,,,,,,,,,,,,,,,,,,,,,,,,,,,,,,,,,,,,,,,,,,,,,,,,,,,,,,,,,,,
,,,,,,,,5e18552a51c080000e5d59ec,20,M,R,2020-09-09_10h38.40.132,Hybrid_Search_Task,2020.2.3,Win32,60,,,,,,,,,,,,,,,,,,,,,,,,,,,,,,,,,,,,,,,,,,,,,,,,,,,,,,,,,,,,,,,,,,,,,,,,,,,,,,,,0,6,6,16,1,Objects,bowtie,Stimuli/Objects/bowtie/WT999001L.jpg,,,,,,,,,,,,,,,,,,,,,,,,,,,,,,,,,,,,,,,,,,,,,,,,,,,,,,,,,,,,,,,,,,,,,,,,,,,,,
,,,,,,,,5e18552a51c080000e5d59ec,20,M,R,2020-09-09_10h38.40.132,Hybrid_Search_Task,2020.2.3,Win32,60,,,,,,,,,,,,,,,,,,,,,,,,,,,,,,,,,,,,,,,,,,,,,,,,,,,,,,,,,,,,,,,,,,,,,,,,,,,,,,,,0,7,7,14,1,Objects,bowtie,Stimuli/Objects/bowtie/BTS30.jpg,,,,,,,,,,,,,,,,,,,,,,,,,,,,,,,,,,,,,,,,,,,,,,,,,,,,,,,,,,,,,,,,,,,,,,,,,,,,,
,,,,,,,,5e18552a51c080000e5d59ec,20,M,R,2020-09-09_10h38.40.132,Hybrid_Search_Task,2020.2.3,Win32,60,,,,,,,,,,,,,,,,,,,,,,,,,,,,,,,,,,,,,,,,,,,,,,,,,,,,,,,,,,,,,,,,,,,,,,,,,,,,,,,,0,8,8,15,1,Objects,bowtie,Stimuli/Objects/bowtie/SM01.402cs.jpg,,,,,,,,,,,,,,,,,,,,,,,,,,,,,,,,,,,,,,,,,,,,,,,,,,,,,,,,,,,,,,,,,,,,,,,,,,,,,
,,,,,,,,5e18552a51c080000e5d59ec,20,M,R,2020-09-09_10h38.40.132,Hybrid_Search_Task,2020.2.3,Win32,60,,,,,,,,,,,,,,,,,,,,,,,,,,,,,,,,,,,,,,,,,,,,,,,,,,,,,,,,,,,,,,,,,,,,,,,,,,,,,,,,0,9,9,13,1,Objects,bowtie,Stimuli/Objects/bowtie/bowtie-1.jpg,,,,,,,,,,,,,,,,,,,,,,,,,,,,,,,,,,,,,,,,,,,,,,,,,,,,,,,,,,,,,,,,,,,,,,,,,,,,,
,,,,,,,,5e18552a51c080000e5d59ec,20,M,R,2020-09-09_10h38.40.132,Hybrid_Search_Task,2020.2.3,Win32,60,,,,,,,,,,,,,,,,,,,,,,,,,,,,,,,,,,,,,,,,,,,,,,,,,,,,,,,,,,,,,,,,,,,,,,,,,,,,,,,,0,10,10,6,1,Objects,bowtie,Stimuli/Objects/bowtie/ABOWTIE3.jpg,,,,,,,,,,,,,,,,,,,,,,,,,,,,,,,,,,,,,,,,,,,,,,,,,,,,,,,,,,,,,,,,,,,,,,,,,,,,,
,,,,,,,,5e18552a51c080000e5d59ec,20,M,R,2020-09-09_10h38.40.132,Hybrid_Search_Task,2020.2.3,Win32,60,,,,,,,,,,,,,,,,,,,,,,,,,,,,,,,,,,,,,,,,,,,,,,,,,,,,,,,,,,,,,,,,,,,,,,,,,,,,,,,,0,11,11,11,1,Objects,bowtie,Stimuli/Objects/bowtie/ABOWTIE9.jpg,,,,,,,,,,,,,,,,,,,,,,,,,,,,,,,,,,,,,,,,,,,,,,,,,,,,,,,,,,,,,,,,,,,,,,,,,,,,,
,,,,,,,,5e18552a51c080000e5d59ec,20,M,R,2020-09-09_10h38.40.132,Hybrid_Search_Task,2020.2.3,Win32,60,,,,,,,,,,,,,,,,,,,,,,,,,,,,,,,,,,,,,,,,,,,,,,,,,,,,,,,,,,,,,,,,,,,,,,,,,,,,,,,,0,12,12,7,1,Objects,bowtie,Stimuli/Objects/bowtie/ABOWTIE4.jpg,,,,,,,,,,,,,,,,,,,,,,,,,,,,,,,,,,,,,,,,,,,,,,,,,,,,,,,,,,,,,,,,,,,,,,,,,,,,,
,,,,,,,,5e18552a51c080000e5d59ec,20,M,R,2020-09-09_10h38.40.132,Hybrid_Search_Task,2020.2.3,Win32,60,,,,,,,,,,,,,,,,,,,,,,,,,,,,,,,,,,,,,,,,,,,,,,,,,,,,,,,,,,,,,,,,,,,,,,,,,,,,,,,,0,13,13,4,1,Objects,bowtie,Stimuli/Objects/bowtie/ABOWTIE10.jpg,,,,,,,,,,,,,,,,,,,,,,,,,,,,,,,,,,,,,,,,,,,,,,,,,,,,,,,,,,,,,,,,,,,,,,,,,,,,,
,,,,,,,,5e18552a51c080000e5d59ec,20,M,R,2020-09-09_10h38.40.132,Hybrid_Search_Task,2020.2.3,Win32,60,,,,,,,,,,,,,,,,,,,,,,,,,,,,,,,,,,,,,,,,,,,,,,,,,,,,,,,,,,,,,,,,,,,,,,,,,,,,,,,,0,14,14,8,1,Objects,bowtie,Stimuli/Objects/bowtie/ABOWTIE5.jpg,,,,,,,,,,,,,,,,,,,,,,,,,,,,,,,,,,,,,,,,,,,,,,,,,,,,,,,,,,,,,,,,,,,,,,,,,,,,,
,,,,,,,,5e18552a51c080000e5d59ec,20,M,R,2020-09-09_10h38.40.132,Hybrid_Search_Task,2020.2.3,Win32,60,,,,,,,,,,,,,,,,,,,,,,,,,,,,,,,,,,,,,,,,,,,,,,,,,,,,,,,,,,,,,,,,,,,,,,,,,,,,,,,,0,15,15,5,1,Objects,bowtie,Stimuli/Objects/bowtie/ABOWTIE2.jpg,,,,,,,,,,,,,,,,,,,,,,,,,,,,,,,,,,,,,,,,,,,,,,,,,,,,,,,,,,,,,,,,,,,,,,,,,,,,,
,,,,,,,,5e18552a51c080000e5d59ec,20,M,R,2020-09-09_10h38.40.132,Hybrid_Search_Task,2020.2.3,Win32,60,,,,,,,,,,,,,,,,,,,,,,,,,,,,,,,,,,,,,,,,,,,,,,,,,,,,,,,,,,,,,,,,,,,,,,,,,,,,,,,,0,16,16,3,1,Objects,bowtie,Stimuli/Objects/bowtie/ABOWTIE.jpg,,,,,,,,,,,,,,,,,,,,,,,,,,,,,,,,,,,,,,,,,,,,,,,,,,,,,,,,,,,,,,,,,,,,,,,,,,,,,
,,,,,,,,5e18552a51c080000e5d59ec,20,M,R,2020-09-09_10h38.40.132,Hybrid_Search_Task,2020.2.3,Win32,60,,,,,,,,,,,,,,,,,,,,,,,,,,,,,,,,,,,,,,,,,,,,,,,,,,,,,,,,,,,,,,,,,,,,,,,,,,,,,,,,,,,,,,,,0,2,2,8,1,StimList/bowtie.xls,,,,,,,,,,,,,,,,,,,,,,,,,,,,,,,,,,,,,,,,,,,,,,,,,,,,,,,,,,,,,,,,,,,,,,,
,,,,,,,,5e18552a51c080000e5d59ec,20,M,R,2020-09-09_10h38.40.132,Hybrid_Search_Task,2020.2.3,Win32,60,,,,,,,,,,,,,,,,,,,,,,,,,,,,,,,,,,,,,,,,,,,,,,,,,,,,,,,,,,,,,,,,,,,,,,,,,,,,,,,,0,0,0,0,1,Objects,hat,Stimuli/Objects/hat/ABLUEHAT.jpg,,,,,,,,,,,,,,,,,,,,,,,,,,,,,,,,,,,,,,,,,,,,,,,,,,,,,,,,,,,,,,,,,,,,,,,,,,,,,
,,,,,,,,5e18552a51c080000e5d59ec,20,M,R,2020-09-09_10h38.40.132,Hybrid_Search_Task,2020.2.3,Win32,60,,,,,,,,,,,,,,,,,,,,,,,,,,,,,,,,,,,,,,,,,,,,,,,,,,,,,,,,,,,,,,,,,,,,,,,,,,,,,,,,0,1,1,12,1,Objects,hat,Stimuli/Objects/hat/Astrawhat49.jpg,,,,,,,,,,,,,,,,,,,,,,,,,,,,,,,,,,,,,,,,,,,,,,,,,,,,,,,,,,,,,,,,,,,,,,,,,,,,,
,,,,,,,,5e18552a51c080000e5d59ec,20,M,R,2020-09-09_10h38.40.132,Hybrid_Search_Task,2020.2.3,Win32,60,,,,,,,,,,,,,,,,,,,,,,,,,,,,,,,,,,,,,,,,,,,,,,,,,,,,,,,,,,,,,,,,,,,,,,,,,,,,,,,,0,2,2,1,1,Objects,hat,Stimuli/Objects/hat/Acasualhat5.jpg,,,,,,,,,,,,,,,,,,,,,,,,,,,,,,,,,,,,,,,,,,,,,,,,,,,,,,,,,,,,,,,,,,,,,,,,,,,,,
,,,,,,,,5e18552a51c080000e5d59ec,20,M,R,2020-09-09_10h38.40.132,Hybrid_Search_Task,2020.2.3,Win32,60,,,,,,,,,,,,,,,,,,,,,,,,,,,,,,,,,,,,,,,,,,,,,,,,,,,,,,,,,,,,,,,,,,,,,,,,,,,,,,,,0,3,3,4,1,Objects,hat,Stimuli/Objects/hat/Aformalhat5.jpg,,,,,,,,,,,,,,,,,,,,,,,,,,,,,,,,,,,,,,,,,,,,,,,,,,,,,,,,,,,,,,,,,,,,,,,,,,,,,
,,,,,,,,5e18552a51c080000e5d59ec,20,M,R,2020-09-09_10h38.40.132,Hybrid_Search_Task,2020.2.3,Win32,60,,,,,,,,,,,,,,,,,,,,,,,,,,,,,,,,,,,,,,,,,,,,,,,,,,,,,,,,,,,,,,,,,,,,,,,,,,,,,,,,0,4,4,13,1,Objects,hat,Stimuli/Objects/hat/ASTRHATFL.jpg,,,,,,,,,,,,,,,,,,,,,,,,,,,,,,,,,,,,,,,,,,,,,,,,,,,,,,,,,,,,,,,,,,,,,,,,,,,,,
,,,,,,,,5e18552a51c080000e5d59ec,20,M,R,2020-09-09_10h38.40.132,Hybrid_Search_Task,2020.2.3,Win32,60,,,,,,,,,,,,,,,,,,,,,,,,,,,,,,,,,,,,,,,,,,,,,,,,,,,,,,,,,,,,,,,,,,,,,,,,,,,,,,,,0,5,5,5,1,Objects,hat,Stimuli/Objects/hat/AGREENHAT.jpg,,,,,,,,,,,,,,,,,,,,,,,,,,,,,,,,,,,,,,,,,,,,,,,,,,,,,,,,,,,,,,,,,,,,,,,,,,,,,
,,,,,,,,5e18552a51c080000e5d59ec,20,M,R,2020-09-09_10h38.40.132,Hybrid_Search_Task,2020.2.3,Win32,60,,,,,,,,,,,,,,,,,,,,,,,,,,,,,,,,,,,,,,,,,,,,,,,,,,,,,,,,,,,,,,,,,,,,,,,,,,,,,,,,0,6,6,15,1,Objects,hat,Stimuli/Objects/hat/AYELLHAT.jpg,,,,,,,,,,,,,,,,,,,,,,,,,,,,,,,,,,,,,,,,,,,,,,,,,,,,,,,,,,,,,,,,,,,,,,,,,,,,,
,,,,,,,,5e18552a51c080000e5d59ec,20,M,R,2020-09-09_10h38.40.132,Hybrid_Search_Task,2020.2.3,Win32,60,,,,,,,,,,,,,,,,,,,,,,,,,,,,,,,,,,,,,,,,,,,,,,,,,,,,,,,,,,,,,,,,,,,,,,,,,,,,,,,,0,7,7,6,1,Objects,hat,Stimuli/Objects/hat/Ahat136.jpg,,,,,,,,,,,,,,,,,,,,,,,,,,,,,,,,,,,,,,,,,,,,,,,,,,,,,,,,,,,,,,,,,,,,,,,,,,,,,
,,,,,,,,5e18552a51c080000e5d59ec,20,M,R,2020-09-09_10h38.40.132,Hybrid_Search_Task,2020.2.3,Win32,60,,,,,,,,,,,,,,,,,,,,,,,,,,,,,,,,,,,,,,,,,,,,,,,,,,,,,,,,,,,,,,,,,,,,,,,,,,,,,,,,0,8,8,10,1,Objects,hat,Stimuli/Objects/hat/AREDHAT4.jpg,,,,,,,,,,,,,,,,,,,,,,,,,,,,,,,,,,,,,,,,,,,,,,,,,,,,,,,,,,,,,,,,,,,,,,,,,,,,,
,,,,,,,,5e18552a51c080000e5d59ec,20,M,R,2020-09-09_10h38.40.132,Hybrid_Search_Task,2020.2.3,Win32,60,,,,,,,,,,,,,,,,,,,,,,,,,,,,,,,,,,,,,,,,,,,,,,,,,,,,,,,,,,,,,,,,,,,,,,,,,,,,,,,,0,9,9,3,1,Objects,hat,Stimuli/Objects/hat/AFISHHAT2.jpg,,,,,,,,,,,,,,,,,,,,,,,,,,,,,,,,,,,,,,,,,,,,,,,,,,,,,,,,,,,,,,,,,,,,,,,,,,,,,
,,,,,,,,5e18552a51c080000e5d59ec,20,M,R,2020-09-09_10h38.40.132,Hybrid_Search_Task,2020.2.3,Win32,60,,,,,,,,,,,,,,,,,,,,,,,,,,,,,,,,,,,,,,,,,,,,,,,,,,,,,,,,,,,,,,,,,,,,,,,,,,,,,,,,0,10,10,2,1,Objects,hat,Stimuli/Objects/hat/AFELTHAT.jpg,,,,,,,,,,,,,,,,,,,,,,,,,,,,,,,,,,,,,,,,,,,,,,,,,,,,,,,,,,,,,,,,,,,,,,,,,,,,,
,,,,,,,,5e18552a51c080000e5d59ec,20,M,R,2020-09-09_10h38.40.132,Hybrid_Search_Task,2020.2.3,Win32,60,,,,,,,,,,,,,,,,,,,,,,,,,,,,,,,,,,,,,,,,,,,,,,,,,,,,,,,,,,,,,,,,,,,,,,,,,,,,,,,,0,11,11,11,1,Objects,hat,Stimuli/Objects/hat/Astrawhat44.jpg,,,,,,,,,,,,,,,,,,,,,,,,,,,,,,,,,,,,,,,,,,,,,,,,,,,,,,,,,,,,,,,,,,,,,,,,,,,,,
,,,,,,,,5e18552a51c080000e5d59ec,20,M,R,2020-09-09_10h38.40.132,Hybrid_Search_Task,2020.2.3,Win32,60,,,,,,,,,,,,,,,,,,,,,,,,,,,,,,,,,,,,,,,,,,,,,,,,,,,,,,,,,,,,,,,,,,,,,,,,,,,,,,,,0,12,12,16,1,Objects,hat,Stimuli/Objects/hat/JS370.jpg,,,,,,,,,,,,,,,,,,,,,,,,,,,,,,,,,,,,,,,,,,,,,,,,,,,,,,,,,,,,,,,,,,,,,,,,,,,,,
,,,,,,,,5e18552a51c080000e5d59ec,20,M,R,2020-09-09_10h38.40.132,Hybrid_Search_Task,2020.2.3,Win32,60,,,,,,,,,,,,,,,,,,,,,,,,,,,,,,,,,,,,,,,,,,,,,,,,,,,,,,,,,,,,,,,,,,,,,,,,,,,,,,,,0,13,13,9,1,Objects,hat,Stimuli/Objects/hat/Apanamahat2.jpg,,,,,,,,,,,,,,,,,,,,,,,,,,,,,,,,,,,,,,,,,,,,,,,,,,,,,,,,,,,,,,,,,,,,,,,,,,,,,
,,,,,,,,5e18552a51c080000e5d59ec,20,M,R,2020-09-09_10h38.40.132,Hybrid_Search_Task,2020.2.3,Win32,60,,,,,,,,,,,,,,,,,,,,,,,,,,,,,,,,,,,,,,,,,,,,,,,,,,,,,,,,,,,,,,,,,,,,,,,,,,,,,,,,0,14,14,14,1,Objects,hat,Stimuli/Objects/hat/Atornhat3.jpg,,,,,,,,,,,,,,,,,,,,,,,,,,,,,,,,,,,,,,,,,,,,,,,,,,,,,,,,,,,,,,,,,,,,,,,,,,,,,
,,,,,,,,5e18552a51c080000e5d59ec,20,M,R,2020-09-09_10h38.40.132,Hybrid_Search_Task,2020.2.3,Win32,60,,,,,,,,,,,,,,,,,,,,,,,,,,,,,,,,,,,,,,,,,,,,,,,,,,,,,,,,,,,,,,,,,,,,,,,,,,,,,,,,0,15,15,7,1,Objects,hat,Stimuli/Objects/hat/Ahatwithfeat7.jpg,,,,,,,,,,,,,,,,,,,,,,,,,,,,,,,,,,,,,,,,,,,,,,,,,,,,,,,,,,,,,,,,,,,,,,,,,,,,,
,,,,,,,,5e18552a51c080000e5d59ec,20,M,R,2020-09-09_10h38.40.132,Hybrid_Search_Task,2020.2.3,Win32,60,,,,,,,,,,,,,,,,,,,,,,,,,,,,,,,,,,,,,,,,,,,,,,,,,,,,,,,,,,,,,,,,,,,,,,,,,,,,,,,,0,16,16,8,1,Objects,hat,Stimuli/Objects/hat/Ahatwithfeath.jpg,,,,,,,,,,,,,,,,,,,,,,,,,,,,,,,,,,,,,,,,,,,,,,,,,,,,,,,,,,,,,,,,,,,,,,,,,,,,,
,,,,,,,,5e18552a51c080000e5d59ec,20,M,R,2020-09-09_10h38.40.132,Hybrid_Search_Task,2020.2.3,Win32,60,,,,,,,,,,,,,,,,,,,,,,,,,,,,,,,,,,,,,,,,,,,,,,,,,,,,,,,,,,,,,,,,,,,,,,,,,,,,,,,,,,,,,,,,0,3,3,19,1,StimList/hat.xls,,,,,,,,,,,,,,,,,,,,,,,,,,,,,,,,,,,,,,,,,,,,,,,,,,,,,,,,,,,,,,,,,,,,,,,
,,,,,,,,5e18552a51c080000e5d59ec,20,M,R,2020-09-09_10h38.40.132,Hybrid_Search_Task,2020.2.3,Win32,60,,,,,,,,,,,,,,,,,,,,,,,,,,,,,,,,,,,,,,,,,,,,,,,,,,,,,,,,,,,,,,,,,,,,,,,,,,,,,,,,0,0,0,6,1,Objects,bell,Stimuli/Objects/bell/ABELL24.jpg,,,,,,,,,,,,,,,,,,,,,,,,,,,,,,,,,,,,,,,,,,,,,,,,,,,,,,,,,,,,,,,,,,,,,,,,,,,,,
,,,,,,,,5e18552a51c080000e5d59ec,20,M,R,2020-09-09_10h38.40.132,Hybrid_Search_Task,2020.2.3,Win32,60,,,,,,,,,,,,,,,,,,,,,,,,,,,,,,,,,,,,,,,,,,,,,,,,,,,,,,,,,,,,,,,,,,,,,,,,,,,,,,,,0,1,1,11,1,Objects,bell,Stimuli/Objects/bell/Abell49.jpg,,,,,,,,,,,,,,,,,,,,,,,,,,,,,,,,,,,,,,,,,,,,,,,,,,,,,,,,,,,,,,,,,,,,,,,,,,,,,
,,,,,,,,5e18552a51c080000e5d59ec,20,M,R,2020-09-09_10h38.40.132,Hybrid_Search_Task,2020.2.3,Win32,60,,,,,,,,,,,,,,,,,,,,,,,,,,,,,,,,,,,,,,,,,,,,,,,,,,,,,,,,,,,,,,,,,,,,,,,,,,,,,,,,0,2,2,3,1,Objects,bell,Stimuli/Objects/bell/ABELL.jpg,,,,,,,,,,,,,,,,,,,,,,,,,,,,,,,,,,,,,,,,,,,,,,,,,,,,,,,,,,,,,,,,,,,,,,,,,,,,,
,,,,,,,,5e18552a51c080000e5d59ec,20,M,R,2020-09-09_10h38.40.132,Hybrid_Search_Task,2020.2.3,Win32,60,,,,,,,,,,,,,,,,,,,,,,,,,,,,,,,,,,,,,,,,,,,,,,,,,,,,,,,,,,,,,,,,,,,,,,,,,,,,,,,,0,3,3,16,1,Objects,bell,Stimuli/Objects/bell/necessities_12.jpg,,,,,,,,,,,,,,,,,,,,,,,,,,,,,,,,,,,,,,,,,,,,,,,,,,,,,,,,,,,,,,,,,,,,,,,,,,,,,
,,,,,,,,5e18552a51c080000e5d59ec,20,M,R,2020-09-09_10h38.40.132,Hybrid_Search_Task,2020.2.3,Win32,60,,,,,,,,,,,,,,,,,,,,,,,,,,,,,,,,,,,,,,,,,,,,,,,,,,,,,,,,,,,,,,,,,,,,,,,,,,,,,,,,0,4,4,2,1,Objects,bell,Stimuli/Objects/bell/26422101.thl.jpg,,,,,,,,,,,,,,,,,,,,,,,,,,,,,,,,,,,,,,,,,,,,,,,,,,,,,,,,,,,,,,,,,,,,,,,,,,,,,
,,,,,,,,5e18552a51c080000e5d59ec,20,M,R,2020-09-09_10h38.40.132,Hybrid_Search_Task,2020.2.3,Win32,60,,,,,,,,,,,,,,,,,,,,,,,,,,,,,,,,,,,,,,,,,,,,,,,,,,,,,,,,,,,,,,,,,,,,,,,,,,,,,,,,0,5,5,14,1,Objects,bell,Stimuli/Objects/bell/necessities_.jpg,,,,,,,,,,,,,,,,,,,,,,,,,,,,,,,,,,,,,,,,,,,,,,,,,,,,,,,,,,,,,,,,,,,,,,,,,,,,,
,,,,,,,,5e18552a51c080000e5d59ec,20,M,R,2020-09-09_10h38.40.132,Hybrid_Search_Task,2020.2.3,Win32,60,,,,,,,,,,,,,,,,,,,,,,,,,,,,,,,,,,,,,,,,,,,,,,,,,,,,,,,,,,,,,,,,,,,,,,,,,,,,,,,,0,6,6,12,1,Objects,bell,Stimuli/Objects/bell/Abell50.jpg,,,,,,,,,,,,,,,,,,,,,,,,,,,,,,,,,,,,,,,,,,,,,,,,,,,,,,,,,,,,,,,,,,,,,,,,,,,,,
,,,,,,,,5e18552a51c080000e5d59ec,20,M,R,2020-09-09_10h38.40.132,Hybrid_Search_Task,2020.2.3,Win32,60,,,,,,,,,,,,,,,,,,,,,,,,,,,,,,,,,,,,,,,,,,,,,,,,,,,,,,,,,,,,,,,,,,,,,,,,,,,,,,,,0,7,7,5,1,Objects,bell,Stimuli/Objects/bell/ABELL20.jpg,,,,,,,,,,,,,,,,,,,,,,,,,,,,,,,,,,,,,,,,,,,,,,,,,,,,,,,,,,,,,,,,,,,,,,,,,,,,,
,,,,,,,,5e18552a51c080000e5d59ec,20,M,R,2020-09-09_10h38.40.132,Hybrid_Search_Task,2020.2.3,Win32,60,,,,,,,,,,,,,,,,,,,,,,,,,,,,,,,,,,,,,,,,,,,,,,,,,,,,,,,,,,,,,,,,,,,,,,,,,,,,,,,,0,8,8,10,1,Objects,bell,Stimuli/Objects/bell/ABELL39.jpg,,,,,,,,,,,,,,,,,,,,,,,,,,,,,,,,,,,,,,,,,,,,,,,,,,,,,,,,,,,,,,,,,,,,,,,,,,,,,
,,,,,,,,5e18552a51c080000e5d59ec,20,M,R,2020-09-09_10h38.40.132,Hybrid_Search_Task,2020.2.3,Win32,60,,,,,,,,,,,,,,,,,,,,,,,,,,,,,,,,,,,,,,,,,,,,,,,,,,,,,,,,,,,,,,,,,,,,,,,,,,,,,,,,0,9,9,13,1,Objects,bell,Stimuli/Objects/bell/LF-42BELL-RG.jpg,,,,,,,,,,,,,,,,,,,,,,,,,,,,,,,,,,,,,,,,,,,,,,,,,,,,,,,,,,,,,,,,,,,,,,,,,,,,,
,,,,,,,,5e18552a51c080000e5d59ec,20,M,R,2020-09-09_10h38.40.132,Hybrid_Search_Task,2020.2.3,Win32,60,,,,,,,,,,,,,,,,,,,,,,,,,,,,,,,,,,,,,,,,,,,,,,,,,,,,,,,,,,,,,,,,,,,,,,,,,,,,,,,,0,10,10,9,1,Objects,bell,Stimuli/Objects/bell/ABELL32.jpg,,,,,,,,,,,,,,,,,,,,,,,,,,,,,,,,,,,,,,,,,,,,,,,,,,,,,,,,,,,,,,,,,,,,,,,,,,,,,
,,,,,,,,5e18552a51c080000e5d59ec,20,M,R,2020-09-09_10h38.40.132,Hybrid_Search_Task,2020.2.3,Win32,60,,,,,,,,,,,,,,,,,,,,,,,,,,,,,,,,,,,,,,,,,,,,,,,,,,,,,,,,,,,,,,,,,,,,,,,,,,,,,,,,0,11,11,4,1,Objects,bell,Stimuli/Objects/bell/ABELL2.jpg,,,,,,,,,,,,,,,,,,,,,,,,,,,,,,,,,,,,,,,,,,,,,,,,,,,,,,,,,,,,,,,,,,,,,,,,,,,,,
,,,,,,,,5e18552a51c080000e5d59ec,20,M,R,2020-09-09_10h38.40.132,Hybrid_Search_Task,2020.2.3,Win32,60,,,,,,,,,,,,,,,,,,,,,,,,,,,,,,,,,,,,,,,,,,,,,,,,,,,,,,,,,,,,,,,,,,,,,,,,,,,,,,,,0,12,12,15,1,Objects,bell,Stimuli/Objects/bell/necessities_11.jpg,,,,,,,,,,,,,,,,,,,,,,,,,,,,,,,,,,,,,,,,,,,,,,,,,,,,,,,,,,,,,,,,,,,,,,,,,,,,,
,,,,,,,,5e18552a51c080000e5d59ec,20,M,R,2020-09-09_10h38.40.132,Hybrid_Search_Task,2020.2.3,Win32,60,,,,,,,,,,,,,,,,,,,,,,,,,,,,,,,,,,,,,,,,,,,,,,,,,,,,,,,,,,,,,,,,,,,,,,,,,,,,,,,,0,13,13,1,1,Objects,bell,Stimuli/Objects/bell/26374701.thl.jpg,,,,,,,,,,,,,,,,,,,,,,,,,,,,,,,,,,,,,,,,,,,,,,,,,,,,,,,,,,,,,,,,,,,,,,,,,,,,,
,,,,,,,,5e18552a51c080000e5d59ec,20,M,R,2020-09-09_10h38.40.132,Hybrid_Search_Task,2020.2.3,Win32,60,,,,,,,,,,,,,,,,,,,,,,,,,,,,,,,,,,,,,,,,,,,,,,,,,,,,,,,,,,,,,,,,,,,,,,,,,,,,,,,,0,14,14,8,1,Objects,bell,Stimuli/Objects/bell/ABELL31.jpg,,,,,,,,,,,,,,,,,,,,,,,,,,,,,,,,,,,,,,,,,,,,,,,,,,,,,,,,,,,,,,,,,,,,,,,,,,,,,
,,,,,,,,5e18552a51c080000e5d59ec,20,M,R,2020-09-09_10h38.40.132,Hybrid_Search_Task,2020.2.3,Win32,60,,,,,,,,,,,,,,,,,,,,,,,,,,,,,,,,,,,,,,,,,,,,,,,,,,,,,,,,,,,,,,,,,,,,,,,,,,,,,,,,0,15,15,0,1,Objects,bell,Stimuli/Objects/bell/22863204.thl.jpg,,,,,,,,,,,,,,,,,,,,,,,,,,,,,,,,,,,,,,,,,,,,,,,,,,,,,,,,,,,,,,,,,,,,,,,,,,,,,
,,,,,,,,5e18552a51c080000e5d59ec,20,M,R,2020-09-09_10h38.40.132,Hybrid_Search_Task,2020.2.3,Win32,60,,,,,,,,,,,,,,,,,,,,,,,,,,,,,,,,,,,,,,,,,,,,,,,,,,,,,,,,,,,,,,,,,,,,,,,,,,,,,,,,0,16,16,7,1,Objects,bell,Stimuli/Objects/bell/ABELL3.jpg,,,,,,,,,,,,,,,,,,,,,,,,,,,,,,,,,,,,,,,,,,,,,,,,,,,,,,,,,,,,,,,,,,,,,,,,,,,,,
,,,,,,,,5e18552a51c080000e5d59ec,20,M,R,2020-09-09_10h38.40.132,Hybrid_Search_Task,2020.2.3,Win32,60,,,,,,,,,,,,,,,,,,,,,,,,,,,,,,,,,,,,,,,,,,,,,,,,,,,,,,,,,,,,,,,,,,,,,,,,,,,,,,,,,,,,,,,,0,4,4,3,1,StimList/bell.xls,,,,,,,,,,,,,,,,,,,,,,,,,,,,,,,,,,,,,,,,,,,,,,,,,,,,,,,,,,,,,,,,,,,,,,,
,,,,,,,,5e18552a51c080000e5d59ec,20,M,R,2020-09-09_10h38.40.132,Hybrid_Search_Task,2020.2.3,Win32,60,,,,,,,,,,,,,,,,,,,,,,,,,,,,,,,,,,,,,,,,,,,,,,,,,,,,,,,,,,,,,,,,,,,,,,,,,,,,,,,,0,0,0,5,1,Objects,hairbrush,Stimuli/Objects/hairbrush/B000A8045S.01-A3MUP0TQW88EYV._SCLZZZZZZZ_V23466783_SS500_.jpg,,,,,,,,,,,,,,,,,,,,,,,,,,,,,,,,,,,,,,,,,,,,,,,,,,,,,,,,,,,,,,,,,,,,,,,,,,,,,
,,,,,,,,5e18552a51c080000e5d59ec,20,M,R,2020-09-09_10h38.40.132,Hybrid_Search_Task,2020.2.3,Win32,60,,,,,,,,,,,,,,,,,,,,,,,,,,,,,,,,,,,,,,,,,,,,,,,,,,,,,,,,,,,,,,,,,,,,,,,,,,,,,,,,0,1,1,6,1,Objects,hairbrush,Stimuli/Objects/hairbrush/Hairbrush.jpg,,,,,,,,,,,,,,,,,,,,,,,,,,,,,,,,,,,,,,,,,,,,,,,,,,,,,,,,,,,,,,,,,,,,,,,,,,,,,
,,,,,,,,5e18552a51c080000e5d59ec,20,M,R,2020-09-09_10h38.40.132,Hybrid_Search_Task,2020.2.3,Win32,60,,,,,,,,,,,,,,,,,,,,,,,,,,,,,,,,,,,,,,,,,,,,,,,,,,,,,,,,,,,,,,,,,,,,,,,,,,,,,,,,0,2,2,10,1,Objects,hairbrush,Stimuli/Objects/hairbrush/hairbrush17.jpg,,,,,,,,,,,,,,,,,,,,,,,,,,,,,,,,,,,,,,,,,,,,,,,,,,,,,,,,,,,,,,,,,,,,,,,,,,,,,
,,,,,,,,5e18552a51c080000e5d59ec,20,M,R,2020-09-09_10h38.40.132,Hybrid_Search_Task,2020.2.3,Win32,60,,,,,,,,,,,,,,,,,,,,,,,,,,,,,,,,,,,,,,,,,,,,,,,,,,,,,,,,,,,,,,,,,,,,,,,,,,,,,,,,0,3,3,2,1,Objects,hairbrush,Stimuli/Objects/hairbrush/Ahairbrush9.jpg,,,,,,,,,,,,,,,,,,,,,,,,,,,,,,,,,,,,,,,,,,,,,,,,,,,,,,,,,,,,,,,,,,,,,,,,,,,,,
,,,,,,,,5e18552a51c080000e5d59ec,20,M,R,2020-09-09_10h38.40.132,Hybrid_Search_Task,2020.2.3,Win32,60,,,,,,,,,,,,,,,,,,,,,,,,,,,,,,,,,,,,,,,,,,,,,,,,,,,,,,,,,,,,,,,,,,,,,,,,,,,,,,,,0,4,4,14,1,Objects,hairbrush,Stimuli/Objects/hairbrush/hairbrush47.jpg,,,,,,,,,,,,,,,,,,,,,,,,,,,,,,,,,,,,,,,,,,,,,,,,,,,,,,,,,,,,,,,,,,,,,,,,,,,,,
,,,,,,,,5e18552a51c080000e5d59ec,20,M,R,2020-09-09_10h38.40.132,Hybrid_Search_Task,2020.2.3,Win32,60,,,,,,,,,,,,,,,,,,,,,,,,,,,,,,,,,,,,,,,,,,,,,,,,,,,,,,,,,,,,,,,,,,,,,,,,,,,,,,,,0,5,5,13,1,Objects,hairbrush,Stimuli/Objects/hairbrush/hairbrush34.jpg,,,,,,,,,,,,,,,,,,,,,,,,,,,,,,,,,,,,,,,,,,,,,,,,,,,,,,,,,,,,,,,,,,,,,,,,,,,,,
,,,,,,,,5e18552a51c080000e5d59ec,20,M,R,2020-09-09_10h38.40.132,Hybrid_Search_Task,2020.2.3,Win32,60,,,,,,,,,,,,,,,,,,,,,,,,,,,,,,,,,,,,,,,,,,,,,,,,,,,,,,,,,,,,,,,,,,,,,,,,,,,,,,,,0,6,6,0,1,Objects,hairbrush,Stimuli/Objects/hairbrush/300.jpg,,,,,,,,,,,,,,,,,,,,,,,,,,,,,,,,,,,,,,,,,,,,,,,,,,,,,,,,,,,,,,,,,,,,,,,,,,,,,
,,,,,,,,5e18552a51c080000e5d59ec,20,M,R,2020-09-09_10h38.40.132,Hybrid_Search_Task,2020.2.3,Win32,60,,,,,,,,,,,,,,,,,,,,,,,,,,,,,,,,,,,,,,,,,,,,,,,,,,,,,,,,,,,,,,,,,,,,,,,,,,,,,,,,0,7,7,11,1,Objects,hairbrush,Stimuli/Objects/hairbrush/hairbrush24.jpg,,,,,,,,,,,,,,,,,,,,,,,,,,,,,,,,,,,,,,,,,,,,,,,,,,,,,,,,,,,,,,,,,,,,,,,,,,,,,
,,,,,,,,5e18552a51c080000e5d59ec,20,M,R,2020-09-09_10h38.40.132,Hybrid_Search_Task,2020.2.3,Win32,60,,,,,,,,,,,,,,,,,,,,,,,,,,,,,,,,,,,,,,,,,,,,,,,,,,,,,,,,,,,,,,,,,,,,,,,,,,,,,,,,0,8,8,9,1,Objects,hairbrush,Stimuli/Objects/hairbrush/hairbrush15.jpg,,,,,,,,,,,,,,,,,,,,,,,,,,,,,,,,,,,,,,,,,,,,,,,,,,,,,,,,,,,,,,,,,,,,,,,,,,,,,
,,,,,,,,5e18552a51c080000e5d59ec,20,M,R,2020-09-09_10h38.40.132,Hybrid_Search_Task,2020.2.3,Win32,60,,,,,,,,,,,,,,,,,,,,,,,,,,,,,,,,,,,,,,,,,,,,,,,,,,,,,,,,,,,,,,,,,,,,,,,,,,,,,,,,0,9,9,15,1,Objects,hairbrush,Stimuli/Objects/hairbrush/hairbrush7.jpg,,,,,,,,,,,,,,,,,,,,,,,,,,,,,,,,,,,,,,,,,,,,,,,,,,,,,,,,,,,,,,,,,,,,,,,,,,,,,
,,,,,,,,5e18552a51c080000e5d59ec,20,M,R,2020-09-09_10h38.40.132,Hybrid_Search_Task,2020.2.3,Win32,60,,,,,,,,,,,,,,,,,,,,,,,,,,,,,,,,,,,,,,,,,,,,,,,,,,,,,,,,,,,,,,,,,,,,,,,,,,,,,,,,0,10,10,4,1,Objects,hairbrush,Stimuli/Objects/hairbrush/B000A7Y1X0.01-A3MUP0TQW88EYV._SCLZZZZZZZ_V23462953_SS500_.jpg,,,,,,,,,,,,,,,,,,,,,,,,,,,,,,,,,,,,,,,,,,,,,,,,,,,,,,,,,,,,,,,,,,,,,,,,,,,,,
,,,,,,,,5e18552a51c080000e5d59ec,20,M,R,2020-09-09_10h38.40.132,Hybrid_Search_Task,2020.2.3,Win32,60,,,,,,,,,,,,,,,,,,,,,,,,,,,,,,,,,,,,,,,,,,,,,,,,,,,,,,,,,,,,,,,,,,,,,,,,,,,,,,,,0,11,11,7,1,Objects,hairbrush,Stimuli/Objects/hairbrush/hairbrush12.jpg,,,,,,,,,,,,,,,,,,,,,,,,,,,,,,,,,,,,,,,,,,,,,,,,,,,,,,,,,,,,,,,,,,,,,,,,,,,,,
,,,,,,,,5e18552a51c080000e5d59ec,20,M,R,2020-09-09_10h38.40.132,Hybrid_Search_Task,2020.2.3,Win32,60,,,,,,,,,,,,,,,,,,,,,,,,,,,,,,,,,,,,,,,,,,,,,,,,,,,,,,,,,,,,,,,,,,,,,,,,,,,,,,,,0,12,12,1,1,Objects,hairbrush,Stimuli/Objects/hairbrush/Ahairbrush18.jpg,,,,,,,,,,,,,,,,,,,,,,,,,,,,,,,,,,,,,,,,,,,,,,,,,,,,,,,,,,,,,,,,,,,,,,,,,,,,,
,,,,,,,,5e18552a51c080000e5d59ec,20,M,R,2020-09-09_10h38.40.132,Hybrid_Search_Task,2020.2.3,Win32,60,,,,,,,,,,,,,,,,,,,,,,,,,,,,,,,,,,,,,,,,,,,,,,,,,,,,,,,,,,,,,,,,,,,,,,,,,,,,,,,,0,13,13,16,1,Objects,hairbrush,Stimuli/Objects/hairbrush/serenity2000-canada_1903_2658146.jpg,,,,,,,,,,,,,,,,,,,,,,,,,,,,,,,,,,,,,,,,,,,,,,,,,,,,,,,,,,,,,,,,,,,,,,,,,,,,,
,,,,,,,,5e18552a51c080000e5d59ec,20,M,R,2020-09-09_10h38.40.132,Hybrid_Search_Task,2020.2.3,Win32,60,,,,,,,,,,,,,,,,,,,,,,,,,,,,,,,,,,,,,,,,,,,,,,,,,,,,,,,,,,,,,,,,,,,,,,,,,,,,,,,,0,14,14,8,1,Objects,hairbrush,Stimuli/Objects/hairbrush/hairbrush14.jpg,,,,,,,,,,,,,,,,,,,,,,,,,,,,,,,,,,,,,,,,,,,,,,,,,,,,,,,,,,,,,,,,,,,,,,,,,,,,,
,,,,,,,,5e18552a51c080000e5d59ec,20,M,R,2020-09-09_10h38.40.132,Hybrid_Search_Task,2020.2.3,Win32,60,,,,,,,,,,,,,,,,,,,,,,,,,,,,,,,,,,,,,,,,,,,,,,,,,,,,,,,,,,,,,,,,,,,,,,,,,,,,,,,,0,15,15,12,1,Objects,hairbrush,Stimuli/Objects/hairbrush/hairbrush30.jpg,,,,,,,,,,,,,,,,,,,,,,,,,,,,,,,,,,,,,,,,,,,,,,,,,,,,,,,,,,,,,,,,,,,,,,,,,,,,,
,,,,,,,,5e18552a51c080000e5d59ec,20,M,R,2020-09-09_10h38.40.132,Hybrid_Search_Task,2020.2.3,Win32,60,,,,,,,,,,,,,,,,,,,,,,,,,,,,,,,,,,,,,,,,,,,,,,,,,,,,,,,,,,,,,,,,,,,,,,,,,,,,,,,,0,16,16,3,1,Objects,hairbrush,Stimuli/Objects/hairbrush/B0006BKG7U.01-A1NDBS7YGOPBD6._SCLZZZZZZZ_SS500_.jpg,,,,,,,,,,,,,,,,,,,,,,,,,,,,,,,,,,,,,,,,,,,,,,,,,,,,,,,,,,,,,,,,,,,,,,,,,,,,,
,,,,,,,,5e18552a51c080000e5d59ec,20,M,R,2020-09-09_10h38.40.132,Hybrid_Search_Task,2020.2.3,Win32,60,,,,,,,,,,,,,,,,,,,,,,,,,,,,,,,,,,,,,,,,,,,,,,,,,,,,,,,,,,,,,,,,,,,,,,,,,,,,,,,,,,,,,,,,0,5,5,17,1,StimList/hairbrush.xls,,,,,,,,,,,,,,,,,,,,,,,,,,,,,,,,,,,,,,,,,,,,,,,,,,,,,,,,,,,,,,,,,,,,,,,
,,,,,,,,5e18552a51c080000e5d59ec,20,M,R,2020-09-09_10h38.40.132,Hybrid_Search_Task,2020.2.3,Win32,60,,,,,,,,,,,,,,,,,,,,,,,,,,,,,,,,,,,,,,,,,,,,,,,,,,,,,,,,,,,,,,,,,,,,,,,,,,,,,,,,0,0,0,16,1,Objects,lamp,Stimuli/Objects/lamp/BH.12.06.Princeman.lamp.jpg,,,,,,,,,,,,,,,,,,,,,,,,,,,,,,,,,,,,,,,,,,,,,,,,,,,,,,,,,,,,,,,,,,,,,,,,,,,,,
,,,,,,,,5e18552a51c080000e5d59ec,20,M,R,2020-09-09_10h38.40.132,Hybrid_Search_Task,2020.2.3,Win32,60,,,,,,,,,,,,,,,,,,,,,,,,,,,,,,,,,,,,,,,,,,,,,,,,,,,,,,,,,,,,,,,,,,,,,,,,,,,,,,,,0,1,1,9,1,Objects,lamp,Stimuli/Objects/lamp/ALAMP37.jpg,,,,,,,,,,,,,,,,,,,,,,,,,,,,,,,,,,,,,,,,,,,,,,,,,,,,,,,,,,,,,,,,,,,,,,,,,,,,,
,,,,,,,,5e18552a51c080000e5d59ec,20,M,R,2020-09-09_10h38.40.132,Hybrid_Search_Task,2020.2.3,Win32,60,,,,,,,,,,,,,,,,,,,,,,,,,,,,,,,,,,,,,,,,,,,,,,,,,,,,,,,,,,,,,,,,,,,,,,,,,,,,,,,,0,2,2,5,1,Objects,lamp,Stimuli/Objects/lamp/ALAMP16.jpg,,,,,,,,,,,,,,,,,,,,,,,,,,,,,,,,,,,,,,,,,,,,,,,,,,,,,,,,,,,,,,,,,,,,,,,,,,,,,
,,,,,,,,5e18552a51c080000e5d59ec,20,M,R,2020-09-09_10h38.40.132,Hybrid_Search_Task,2020.2.3,Win32,60,,,,,,,,,,,,,,,,,,,,,,,,,,,,,,,,,,,,,,,,,,,,,,,,,,,,,,,,,,,,,,,,,,,,,,,,,,,,,,,,0,3,3,1,1,Objects,lamp,Stimuli/Objects/lamp/Adesklamp34.jpg,,,,,,,,,,,,,,,,,,,,,,,,,,,,,,,,,,,,,,,,,,,,,,,,,,,,,,,,,,,,,,,,,,,,,,,,,,,,,
,,,,,,,,5e18552a51c080000e5d59ec,20,M,R,2020-09-09_10h38.40.132,Hybrid_Search_Task,2020.2.3,Win32,60,,,,,,,,,,,,,,,,,,,,,,,,,,,,,,,,,,,,,,,,,,,,,,,,,,,,,,,,,,,,,,,,,,,,,,,,,,,,,,,,0,4,4,0,1,Objects,lamp,Stimuli/Objects/lamp/Adesklamp25.jpg,,,,,,,,,,,,,,,,,,,,,,,,,,,,,,,,,,,,,,,,,,,,,,,,,,,,,,,,,,,,,,,,,,,,,,,,,,,,,
,,,,,,,,5e18552a51c080000e5d59ec,20,M,R,2020-09-09_10h38.40.132,Hybrid_Search_Task,2020.2.3,Win32,60,,,,,,,,,,,,,,,,,,,,,,,,,,,,,,,,,,,,,,,,,,,,,,,,,,,,,,,,,,,,,,,,,,,,,,,,,,,,,,,,0,5,5,10,1,Objects,lamp,Stimuli/Objects/lamp/ALAMP38.jpg,,,,,,,,,,,,,,,,,,,,,,,,,,,,,,,,,,,,,,,,,,,,,,,,,,,,,,,,,,,,,,,,,,,,,,,,,,,,,
,,,,,,,,5e18552a51c080000e5d59ec,20,M,R,2020-09-09_10h38.40.132,Hybrid_Search_Task,2020.2.3,Win32,60,,,,,,,,,,,,,,,,,,,,,,,,,,,,,,,,,,,,,,,,,,,,,,,,,,,,,,,,,,,,,,,,,,,,,,,,,,,,,,,,0,6,6,14,1,Objects,lamp,Stimuli/Objects/lamp/ATABLAMP6.jpg,,,,,,,,,,,,,,,,,,,,,,,,,,,,,,,,,,,,,,,,,,,,,,,,,,,,,,,,,,,,,,,,,,,,,,,,,,,,,
,,,,,,,,5e18552a51c080000e5d59ec,20,M,R,2020-09-09_10h38.40.132,Hybrid_Search_Task,2020.2.3,Win32,60,,,,,,,,,,,,,,,,,,,,,,,,,,,,,,,,,,,,,,,,,,,,,,,,,,,,,,,,,,,,,,,,,,,,,,,,,,,,,,,,0,7,7,3,1,Objects,lamp,Stimuli/Objects/lamp/Alamp109.jpg,,,,,,,,,,,,,,,,,,,,,,,,,,,,,,,,,,,,,,,,,,,,,,,,,,,,,,,,,,,,,,,,,,,,,,,,,,,,,
,,,,,,,,5e18552a51c080000e5d59ec,20,M,R,2020-09-09_10h38.40.132,Hybrid_Search_Task,2020.2.3,Win32,60,,,,,,,,,,,,,,,,,,,,,,,,,,,,,,,,,,,,,,,,,,,,,,,,,,,,,,,,,,,,,,,,,,,,,,,,,,,,,,,,0,8,8,4,1,Objects,lamp,Stimuli/Objects/lamp/Alamp155.jpg,,,,,,,,,,,,,,,,,,,,,,,,,,,,,,,,,,,,,,,,,,,,,,,,,,,,,,,,,,,,,,,,,,,,,,,,,,,,,
,,,,,,,,5e18552a51c080000e5d59ec,20,M,R,2020-09-09_10h38.40.132,Hybrid_Search_Task,2020.2.3,Win32,60,,,,,,,,,,,,,,,,,,,,,,,,,,,,,,,,,,,,,,,,,,,,,,,,,,,,,,,,,,,,,,,,,,,,,,,,,,,,,,,,0,9,9,11,1,Objects,lamp,Stimuli/Objects/lamp/Alamp96.jpg,,,,,,,,,,,,,,,,,,,,,,,,,,,,,,,,,,,,,,,,,,,,,,,,,,,,,,,,,,,,,,,,,,,,,,,,,,,,,
,,,,,,,,5e18552a51c080000e5d59ec,20,M,R,2020-09-09_10h38.40.132,Hybrid_Search_Task,2020.2.3,Win32,60,,,,,,,,,,,,,,,,,,,,,,,,,,,,,,,,,,,,,,,,,,,,,,,,,,,,,,,,,,,,,,,,,,,,,,,,,,,,,,,,0,10,10,6,1,Objects,lamp,Stimuli/Objects/lamp/ALAMP19.jpg,,,,,,,,,,,,,,,,,,,,,,,,,,,,,,,,,,,,,,,,,,,,,,,,,,,,,,,,,,,,,,,,,,,,,,,,,,,,,
,,,,,,,,5e18552a51c080000e5d59ec,20,M,R,2020-09-09_10h38.40.132,Hybrid_Search_Task,2020.2.3,Win32,60,,,,,,,,,,,,,,,,,,,,,,,,,,,,,,,,,,,,,,,,,,,,,,,,,,,,,,,,,,,,,,,,,,,,,,,,,,,,,,,,0,11,11,7,1,Objects,lamp,Stimuli/Objects/lamp/ALAMP31.jpg,,,,,,,,,,,,,,,,,,,,,,,,,,,,,,,,,,,,,,,,,,,,,,,,,,,,,,,,,,,,,,,,,,,,,,,,,,,,,
,,,,,,,,5e18552a51c080000e5d59ec,20,M,R,2020-09-09_10h38.40.132,Hybrid_Search_Task,2020.2.3,Win32,60,,,,,,,,,,,,,,,,,,,,,,,,,,,,,,,,,,,,,,,,,,,,,,,,,,,,,,,,,,,,,,,,,,,,,,,,,,,,,,,,0,12,12,12,1,Objects,lamp,Stimuli/Objects/lamp/Alamplightf10.jpg,,,,,,,,,,,,,,,,,,,,,,,,,,,,,,,,,,,,,,,,,,,,,,,,,,,,,,,,,,,,,,,,,,,,,,,,,,,,,
,,,,,,,,5e18552a51c080000e5d59ec,20,M,R,2020-09-09_10h38.40.132,Hybrid_Search_Task,2020.2.3,Win32,60,,,,,,,,,,,,,,,,,,,,,,,,,,,,,,,,,,,,,,,,,,,,,,,,,,,,,,,,,,,,,,,,,,,,,,,,,,,,,,,,0,13,13,2,1,Objects,lamp,Stimuli/Objects/lamp/Alamp102.jpg,,,,,,,,,,,,,,,,,,,,,,,,,,,,,,,,,,,,,,,,,,,,,,,,,,,,,,,,,,,,,,,,,,,,,,,,,,,,,
,,,,,,,,5e18552a51c080000e5d59ec,20,M,R,2020-09-09_10h38.40.132,Hybrid_Search_Task,2020.2.3,Win32,60,,,,,,,,,,,,,,,,,,,,,,,,,,,,,,,,,,,,,,,,,,,,,,,,,,,,,,,,,,,,,,,,,,,,,,,,,,,,,,,,0,14,14,15,1,Objects,lamp,Stimuli/Objects/lamp/ATABLELA4.jpg,,,,,,,,,,,,,,,,,,,,,,,,,,,,,,,,,,,,,,,,,,,,,,,,,,,,,,,,,,,,,,,,,,,,,,,,,,,,,
,,,,,,,,5e18552a51c080000e5d59ec,20,M,R,2020-09-09_10h38.40.132,Hybrid_Search_Task,2020.2.3,Win32,60,,,,,,,,,,,,,,,,,,,,,,,,,,,,,,,,,,,,,,,,,,,,,,,,,,,,,,,,,,,,,,,,,,,,,,,,,,,,,,,,0,15,15,8,1,Objects,lamp,Stimuli/Objects/lamp/ALAMP34.jpg,,,,,,,,,,,,,,,,,,,,,,,,,,,,,,,,,,,,,,,,,,,,,,,,,,,,,,,,,,,,,,,,,,,,,,,,,,,,,
,,,,,,,,5e18552a51c080000e5d59ec,20,M,R,2020-09-09_10h38.40.132,Hybrid_Search_Task,2020.2.3,Win32,60,,,,,,,,,,,,,,,,,,,,,,,,,,,,,,,,,,,,,,,,,,,,,,,,,,,,,,,,,,,,,,,,,,,,,,,,,,,,,,,,0,16,16,13,1,Objects,lamp,Stimuli/Objects/lamp/ATABLAMP4.jpg,,,,,,,,,,,,,,,,,,,,,,,,,,,,,,,,,,,,,,,,,,,,,,,,,,,,,,,,,,,,,,,,,,,,,,,,,,,,,
,,,,,,,,5e18552a51c080000e5d59ec,20,M,R,2020-09-09_10h38.40.132,Hybrid_Search_Task,2020.2.3,Win32,60,,,,,,,,,,,,,,,,,,,,,,,,,,,,,,,,,,,,,,,,,,,,,,,,,,,,,,,,,,,,,,,,,,,,,,,,,,,,,,,,,,,,,,,,0,6,6,21,1,StimList/lamp.xls,,,,,,,,,,,,,,,,,,,,,,,,,,,,,,,,,,,,,,,,,,,,,,,,,,,,,,,,,,,,,,,,,,,,,,,
,,,,,,,,5e18552a51c080000e5d59ec,20,M,R,2020-09-09_10h38.40.132,Hybrid_Search_Task,2020.2.3,Win32,60,,,,,,,,,,,,,,,,,,,,,,,,,,,,,,,,,,,,,,,,,,,,,,,,,,,,,,,,,,,,,,,,,,,,,,,,,,,,,,,,0,0,0,15,1,Objects,ringbinder,Stimuli/Objects/ringbinder/WLJ36834NG_1_1_400.JPG,,,,,,,,,,,,,,,,,,,,,,,,,,,,,,,,,,,,,,,,,,,,,,,,,,,,,,,,,,,,,,,,,,,,,,,,,,,,,
,,,,,,,,5e18552a51c080000e5d59ec,20,M,R,2020-09-09_10h38.40.132,Hybrid_Search_Task,2020.2.3,Win32,60,,,,,,,,,,,,,,,,,,,,,,,,,,,,,,,,,,,,,,,,,,,,,,,,,,,,,,,,,,,,,,,,,,,,,,,,,,,,,,,,0,1,1,12,1,Objects,ringbinder,Stimuli/Objects/ringbinder/WLJ36813NBL_1_1_400.JPG,,,,,,,,,,,,,,,,,,,,,,,,,,,,,,,,,,,,,,,,,,,,,,,,,,,,,,,,,,,,,,,,,,,,,,,,,,,,,
,,,,,,,,5e18552a51c080000e5d59ec,20,M,R,2020-09-09_10h38.40.132,Hybrid_Search_Task,2020.2.3,Win32,60,,,,,,,,,,,,,,,,,,,,,,,,,,,,,,,,,,,,,,,,,,,,,,,,,,,,,,,,,,,,,,,,,,,,,,,,,,,,,,,,0,2,2,10,1,Objects,ringbinder,Stimuli/Objects/ringbinder/saunders12530_RingBinder.jpg,,,,,,,,,,,,,,,,,,,,,,,,,,,,,,,,,,,,,,,,,,,,,,,,,,,,,,,,,,,,,,,,,,,,,,,,,,,,,
,,,,,,,,5e18552a51c080000e5d59ec,20,M,R,2020-09-09_10h38.40.132,Hybrid_Search_Task,2020.2.3,Win32,60,,,,,,,,,,,,,,,,,,,,,,,,,,,,,,,,,,,,,,,,,,,,,,,,,,,,,,,,,,,,,,,,,,,,,,,,,,,,,,,,0,3,3,8,1,Objects,ringbinder,Stimuli/Objects/ringbinder/s0165607_enl.jpg,,,,,,,,,,,,,,,,,,,,,,,,,,,,,,,,,,,,,,,,,,,,,,,,,,,,,,,,,,,,,,,,,,,,,,,,,,,,,
,,,,,,,,5e18552a51c080000e5d59ec,20,M,R,2020-09-09_10h38.40.132,Hybrid_Search_Task,2020.2.3,Win32,60,,,,,,,,,,,,,,,,,,,,,,,,,,,,,,,,,,,,,,,,,,,,,,,,,,,,,,,,,,,,,,,,,,,,,,,,,,,,,,,,0,4,4,9,1,Objects,ringbinder,Stimuli/Objects/ringbinder/s0214636_enl.jpg,,,,,,,,,,,,,,,,,,,,,,,,,,,,,,,,,,,,,,,,,,,,,,,,,,,,,,,,,,,,,,,,,,,,,,,,,,,,,
,,,,,,,,5e18552a51c080000e5d59ec,20,M,R,2020-09-09_10h38.40.132,Hybrid_Search_Task,2020.2.3,Win32,60,,,,,,,,,,,,,,,,,,,,,,,,,,,,,,,,,,,,,,,,,,,,,,,,,,,,,,,,,,,,,,,,,,,,,,,,,,,,,,,,0,5,5,13,1,Objects,ringbinder,Stimuli/Objects/ringbinder/WLJ36813NM_1_1_400.JPG,,,,,,,,,,,,,,,,,,,,,,,,,,,,,,,,,,,,,,,,,,,,,,,,,,,,,,,,,,,,,,,,,,,,,,,,,,,,,
,,,,,,,,5e18552a51c080000e5d59ec,20,M,R,2020-09-09_10h38.40.132,Hybrid_Search_Task,2020.2.3,Win32,60,,,,,,,,,,,,,,,,,,,,,,,,,,,,,,,,,,,,,,,,,,,,,,,,,,,,,,,,,,,,,,,,,,,,,,,,,,,,,,,,0,6,6,14,1,Objects,ringbinder,Stimuli/Objects/ringbinder/WLJ36814NB_1_1_400.JPG,,,,,,,,,,,,,,,,,,,,,,,,,,,,,,,,,,,,,,,,,,,,,,,,,,,,,,,,,,,,,,,,,,,,,,,,,,,,,
,,,,,,,,5e18552a51c080000e5d59ec,20,M,R,2020-09-09_10h38.40.132,Hybrid_Search_Task,2020.2.3,Win32,60,,,,,,,,,,,,,,,,,,,,,,,,,,,,,,,,,,,,,,,,,,,,,,,,,,,,,,,,,,,,,,,,,,,,,,,,,,,,,,,,0,7,7,0,1,Objects,ringbinder,Stimuli/Objects/ringbinder/113074SO-1-m.jpg,,,,,,,,,,,,,,,,,,,,,,,,,,,,,,,,,,,,,,,,,,,,,,,,,,,,,,,,,,,,,,,,,,,,,,,,,,,,,
,,,,,,,,5e18552a51c080000e5d59ec,20,M,R,2020-09-09_10h38.40.132,Hybrid_Search_Task,2020.2.3,Win32,60,,,,,,,,,,,,,,,,,,,,,,,,,,,,,,,,,,,,,,,,,,,,,,,,,,,,,,,,,,,,,,,,,,,,,,,,,,,,,,,,0,8,8,1,1,Objects,ringbinder,Stimuli/Objects/ringbinder/113302SO-vinyl-m.jpg,,,,,,,,,,,,,,,,,,,,,,,,,,,,,,,,,,,,,,,,,,,,,,,,,,,,,,,,,,,,,,,,,,,,,,,,,,,,,
,,,,,,,,5e18552a51c080000e5d59ec,20,M,R,2020-09-09_10h38.40.132,Hybrid_Search_Task,2020.2.3,Win32,60,,,,,,,,,,,,,,,,,,,,,,,,,,,,,,,,,,,,,,,,,,,,,,,,,,,,,,,,,,,,,,,,,,,,,,,,,,,,,,,,0,9,9,2,1,Objects,ringbinder,Stimuli/Objects/ringbinder/409785_sk_lg.jpg,,,,,,,,,,,,,,,,,,,,,,,,,,,,,,,,,,,,,,,,,,,,,,,,,,,,,,,,,,,,,,,,,,,,,,,,,,,,,
,,,,,,,,5e18552a51c080000e5d59ec,20,M,R,2020-09-09_10h38.40.132,Hybrid_Search_Task,2020.2.3,Win32,60,,,,,,,,,,,,,,,,,,,,,,,,,,,,,,,,,,,,,,,,,,,,,,,,,,,,,,,,,,,,,,,,,,,,,,,,,,,,,,,,0,10,10,7,1,Objects,ringbinder,Stimuli/Objects/ringbinder/pictorial3pc-l.jpg,,,,,,,,,,,,,,,,,,,,,,,,,,,,,,,,,,,,,,,,,,,,,,,,,,,,,,,,,,,,,,,,,,,,,,,,,,,,,
,,,,,,,,5e18552a51c080000e5d59ec,20,M,R,2020-09-09_10h38.40.132,Hybrid_Search_Task,2020.2.3,Win32,60,,,,,,,,,,,,,,,,,,,,,,,,,,,,,,,,,,,,,,,,,,,,,,,,,,,,,,,,,,,,,,,,,,,,,,,,,,,,,,,,0,11,11,16,1,Objects,ringbinder,Stimuli/Objects/ringbinder/WLJ36849NHR_1_1_400.JPG,,,,,,,,,,,,,,,,,,,,,,,,,,,,,,,,,,,,,,,,,,,,,,,,,,,,,,,,,,,,,,,,,,,,,,,,,,,,,
,,,,,,,,5e18552a51c080000e5d59ec,20,M,R,2020-09-09_10h38.40.132,Hybrid_Search_Task,2020.2.3,Win32,60,,,,,,,,,,,,,,,,,,,,,,,,,,,,,,,,,,,,,,,,,,,,,,,,,,,,,,,,,,,,,,,,,,,,,,,,,,,,,,,,0,12,12,6,1,Objects,ringbinder,Stimuli/Objects/ringbinder/lightvinyl-m.jpg,,,,,,,,,,,,,,,,,,,,,,,,,,,,,,,,,,,,,,,,,,,,,,,,,,,,,,,,,,,,,,,,,,,,,,,,,,,,,
,,,,,,,,5e18552a51c080000e5d59ec,20,M,R,2020-09-09_10h38.40.132,Hybrid_Search_Task,2020.2.3,Win32,60,,,,,,,,,,,,,,,,,,,,,,,,,,,,,,,,,,,,,,,,,,,,,,,,,,,,,,,,,,,,,,,,,,,,,,,,,,,,,,,,0,13,13,5,1,Objects,ringbinder,Stimuli/Objects/ringbinder/digitaloutside-l.jpg,,,,,,,,,,,,,,,,,,,,,,,,,,,,,,,,,,,,,,,,,,,,,,,,,,,,,,,,,,,,,,,,,,,,,,,,,,,,,
,,,,,,,,5e18552a51c080000e5d59ec,20,M,R,2020-09-09_10h38.40.132,Hybrid_Search_Task,2020.2.3,Win32,60,,,,,,,,,,,,,,,,,,,,,,,,,,,,,,,,,,,,,,,,,,,,,,,,,,,,,,,,,,,,,,,,,,,,,,,,,,,,,,,,0,14,14,11,1,Objects,ringbinder,Stimuli/Objects/ringbinder/SI747374-m.jpg,,,,,,,,,,,,,,,,,,,,,,,,,,,,,,,,,,,,,,,,,,,,,,,,,,,,,,,,,,,,,,,,,,,,,,,,,,,,,
,,,,,,,,5e18552a51c080000e5d59ec,20,M,R,2020-09-09_10h38.40.132,Hybrid_Search_Task,2020.2.3,Win32,60,,,,,,,,,,,,,,,,,,,,,,,,,,,,,,,,,,,,,,,,,,,,,,,,,,,,,,,,,,,,,,,,,,,,,,,,,,,,,,,,0,15,15,4,1,Objects,ringbinder,Stimuli/Objects/ringbinder/964882_sk_lg.jpg,,,,,,,,,,,,,,,,,,,,,,,,,,,,,,,,,,,,,,,,,,,,,,,,,,,,,,,,,,,,,,,,,,,,,,,,,,,,,
,,,,,,,,5e18552a51c080000e5d59ec,20,M,R,2020-09-09_10h38.40.132,Hybrid_Search_Task,2020.2.3,Win32,60,,,,,,,,,,,,,,,,,,,,,,,,,,,,,,,,,,,,,,,,,,,,,,,,,,,,,,,,,,,,,,,,,,,,,,,,,,,,,,,,0,16,16,3,1,Objects,ringbinder,Stimuli/Objects/ringbinder/462342_sk_lg.jpg,,,,,,,,,,,,,,,,,,,,,,,,,,,,,,,,,,,,,,,,,,,,,,,,,,,,,,,,,,,,,,,,,,,,,,,,,,,,,
,,,,,,,,5e18552a51c080000e5d59ec,20,M,R,2020-09-09_10h38.40.132,Hybrid_Search_Task,2020.2.3,Win32,60,,,,,,,,,,,,,,,,,,,,,,,,,,,,,,,,,,,,,,,,,,,,,,,,,,,,,,,,,,,,,,,,,,,,,,,,,,,,,,,,,,,,,,,,0,7,7,27,1,StimList/ringbinder.xls,,,,,,,,,,,,,,,,,,,,,,,,,,,,,,,,,,,,,,,,,,,,,,,,,,,,,,,,,,,,,,,,,,,,,,,
,,,,,,,,5e18552a51c080000e5d59ec,20,M,R,2020-09-09_10h38.40.132,Hybrid_Search_Task,2020.2.3,Win32,60,,,,,,,,,,,,,,,,,,,,,,,,,,,,,,,,,,,,,,,,,,,,,,,,,,,,,,,,,,,,,,,,,,,,,,,,,,,,,,,,0,0,0,15,1,Objects,bed,Stimuli/Objects/bed/furniture_5.jpg,,,,,,,,,,,,,,,,,,,,,,,,,,,,,,,,,,,,,,,,,,,,,,,,,,,,,,,,,,,,,,,,,,,,,,,,,,,,,
,,,,,,,,5e18552a51c080000e5d59ec,20,M,R,2020-09-09_10h38.40.132,Hybrid_Search_Task,2020.2.3,Win32,60,,,,,,,,,,,,,,,,,,,,,,,,,,,,,,,,,,,,,,,,,,,,,,,,,,,,,,,,,,,,,,,,,,,,,,,,,,,,,,,,0,1,1,1,1,Objects,bed,Stimuli/Objects/bed/51442C3RKNL._AA262_.jpg,,,,,,,,,,,,,,,,,,,,,,,,,,,,,,,,,,,,,,,,,,,,,,,,,,,,,,,,,,,,,,,,,,,,,,,,,,,,,
,,,,,,,,5e18552a51c080000e5d59ec,20,M,R,2020-09-09_10h38.40.132,Hybrid_Search_Task,2020.2.3,Win32,60,,,,,,,,,,,,,,,,,,,,,,,,,,,,,,,,,,,,,,,,,,,,,,,,,,,,,,,,,,,,,,,,,,,,,,,,,,,,,,,,0,2,2,14,1,Objects,bed,Stimuli/Objects/bed/furniture_4.jpg,,,,,,,,,,,,,,,,,,,,,,,,,,,,,,,,,,,,,,,,,,,,,,,,,,,,,,,,,,,,,,,,,,,,,,,,,,,,,
,,,,,,,,5e18552a51c080000e5d59ec,20,M,R,2020-09-09_10h38.40.132,Hybrid_Search_Task,2020.2.3,Win32,60,,,,,,,,,,,,,,,,,,,,,,,,,,,,,,,,,,,,,,,,,,,,,,,,,,,,,,,,,,,,,,,,,,,,,,,,,,,,,,,,0,3,3,11,1,Objects,bed,Stimuli/Objects/bed/6152JCYP56L._AA262_.jpg,,,,,,,,,,,,,,,,,,,,,,,,,,,,,,,,,,,,,,,,,,,,,,,,,,,,,,,,,,,,,,,,,,,,,,,,,,,,,
,,,,,,,,5e18552a51c080000e5d59ec,20,M,R,2020-09-09_10h38.40.132,Hybrid_Search_Task,2020.2.3,Win32,60,,,,,,,,,,,,,,,,,,,,,,,,,,,,,,,,,,,,,,,,,,,,,,,,,,,,,,,,,,,,,,,,,,,,,,,,,,,,,,,,0,4,4,8,1,Objects,bed,Stimuli/Objects/bed/51V0Ed8LSLL._AA262_.jpg,,,,,,,,,,,,,,,,,,,,,,,,,,,,,,,,,,,,,,,,,,,,,,,,,,,,,,,,,,,,,,,,,,,,,,,,,,,,,
,,,,,,,,5e18552a51c080000e5d59ec,20,M,R,2020-09-09_10h38.40.132,Hybrid_Search_Task,2020.2.3,Win32,60,,,,,,,,,,,,,,,,,,,,,,,,,,,,,,,,,,,,,,,,,,,,,,,,,,,,,,,,,,,,,,,,,,,,,,,,,,,,,,,,0,5,5,2,1,Objects,bed,Stimuli/Objects/bed/51BSS7H4S1L._AA262_.jpg,,,,,,,,,,,,,,,,,,,,,,,,,,,,,,,,,,,,,,,,,,,,,,,,,,,,,,,,,,,,,,,,,,,,,,,,,,,,,
,,,,,,,,5e18552a51c080000e5d59ec,20,M,R,2020-09-09_10h38.40.132,Hybrid_Search_Task,2020.2.3,Win32,60,,,,,,,,,,,,,,,,,,,,,,,,,,,,,,,,,,,,,,,,,,,,,,,,,,,,,,,,,,,,,,,,,,,,,,,,,,,,,,,,0,6,6,9,1,Objects,bed,Stimuli/Objects/bed/51VMwTHx86L._AA262_.jpg,,,,,,,,,,,,,,,,,,,,,,,,,,,,,,,,,,,,,,,,,,,,,,,,,,,,,,,,,,,,,,,,,,,,,,,,,,,,,
,,,,,,,,5e18552a51c080000e5d59ec,20,M,R,2020-09-09_10h38.40.132,Hybrid_Search_Task,2020.2.3,Win32,60,,,,,,,,,,,,,,,,,,,,,,,,,,,,,,,,,,,,,,,,,,,,,,,,,,,,,,,,,,,,,,,,,,,,,,,,,,,,,,,,0,7,7,12,1,Objects,bed,Stimuli/Objects/bed/615hQHOF8+L._AA262_.jpg,,,,,,,,,,,,,,,,,,,,,,,,,,,,,,,,,,,,,,,,,,,,,,,,,,,,,,,,,,,,,,,,,,,,,,,,,,,,,
,,,,,,,,5e18552a51c080000e5d59ec,20,M,R,2020-09-09_10h38.40.132,Hybrid_Search_Task,2020.2.3,Win32,60,,,,,,,,,,,,,,,,,,,,,,,,,,,,,,,,,,,,,,,,,,,,,,,,,,,,,,,,,,,,,,,,,,,,,,,,,,,,,,,,0,8,8,3,1,Objects,bed,Stimuli/Objects/bed/51EXZZAFCEL._AA262_.jpg,,,,,,,,,,,,,,,,,,,,,,,,,,,,,,,,,,,,,,,,,,,,,,,,,,,,,,,,,,,,,,,,,,,,,,,,,,,,,
,,,,,,,,5e18552a51c080000e5d59ec,20,M,R,2020-09-09_10h38.40.132,Hybrid_Search_Task,2020.2.3,Win32,60,,,,,,,,,,,,,,,,,,,,,,,,,,,,,,,,,,,,,,,,,,,,,,,,,,,,,,,,,,,,,,,,,,,,,,,,,,,,,,,,0,9,9,16,1,Objects,bed,Stimuli/Objects/bed/furniture_6.jpg,,,,,,,,,,,,,,,,,,,,,,,,,,,,,,,,,,,,,,,,,,,,,,,,,,,,,,,,,,,,,,,,,,,,,,,,,,,,,
,,,,,,,,5e18552a51c080000e5d59ec,20,M,R,2020-09-09_10h38.40.132,Hybrid_Search_Task,2020.2.3,Win32,60,,,,,,,,,,,,,,,,,,,,,,,,,,,,,,,,,,,,,,,,,,,,,,,,,,,,,,,,,,,,,,,,,,,,,,,,,,,,,,,,0,10,10,10,1,Objects,bed,Stimuli/Objects/bed/51wbushUphL._AA262_.jpg,,,,,,,,,,,,,,,,,,,,,,,,,,,,,,,,,,,,,,,,,,,,,,,,,,,,,,,,,,,,,,,,,,,,,,,,,,,,,
,,,,,,,,5e18552a51c080000e5d59ec,20,M,R,2020-09-09_10h38.40.132,Hybrid_Search_Task,2020.2.3,Win32,60,,,,,,,,,,,,,,,,,,,,,,,,,,,,,,,,,,,,,,,,,,,,,,,,,,,,,,,,,,,,,,,,,,,,,,,,,,,,,,,,0,11,11,13,1,Objects,bed,Stimuli/Objects/bed/61KBF5S9JKL._AA262_.jpg,,,,,,,,,,,,,,,,,,,,,,,,,,,,,,,,,,,,,,,,,,,,,,,,,,,,,,,,,,,,,,,,,,,,,,,,,,,,,
,,,,,,,,5e18552a51c080000e5d59ec,20,M,R,2020-09-09_10h38.40.132,Hybrid_Search_Task,2020.2.3,Win32,60,,,,,,,,,,,,,,,,,,,,,,,,,,,,,,,,,,,,,,,,,,,,,,,,,,,,,,,,,,,,,,,,,,,,,,,,,,,,,,,,0,12,12,5,1,Objects,bed,Stimuli/Objects/bed/51MGXGZ9TYL._AA262_.jpg,,,,,,,,,,,,,,,,,,,,,,,,,,,,,,,,,,,,,,,,,,,,,,,,,,,,,,,,,,,,,,,,,,,,,,,,,,,,,
,,,,,,,,5e18552a51c080000e5d59ec,20,M,R,2020-09-09_10h38.40.132,Hybrid_Search_Task,2020.2.3,Win32,60,,,,,,,,,,,,,,,,,,,,,,,,,,,,,,,,,,,,,,,,,,,,,,,,,,,,,,,,,,,,,,,,,,,,,,,,,,,,,,,,0,13,13,4,1,Objects,bed,Stimuli/Objects/bed/51F6GJHNEFL._AA262_.jpg,,,,,,,,,,,,,,,,,,,,,,,,,,,,,,,,,,,,,,,,,,,,,,,,,,,,,,,,,,,,,,,,,,,,,,,,,,,,,
,,,,,,,,5e18552a51c080000e5d59ec,20,M,R,2020-09-09_10h38.40.132,Hybrid_Search_Task,2020.2.3,Win32,60,,,,,,,,,,,,,,,,,,,,,,,,,,,,,,,,,,,,,,,,,,,,,,,,,,,,,,,,,,,,,,,,,,,,,,,,,,,,,,,,0,14,14,6,1,Objects,bed,Stimuli/Objects/bed/51Mhaa73IRL._AA262_.jpg,,,,,,,,,,,,,,,,,,,,,,,,,,,,,,,,,,,,,,,,,,,,,,,,,,,,,,,,,,,,,,,,,,,,,,,,,,,,,
,,,,,,,,5e18552a51c080000e5d59ec,20,M,R,2020-09-09_10h38.40.132,Hybrid_Search_Task,2020.2.3,Win32,60,,,,,,,,,,,,,,,,,,,,,,,,,,,,,,,,,,,,,,,,,,,,,,,,,,,,,,,,,,,,,,,,,,,,,,,,,,,,,,,,0,15,15,7,1,Objects,bed,Stimuli/Objects/bed/51tCXjB7owL._AA262_-1.jpg,,,,,,,,,,,,,,,,,,,,,,,,,,,,,,,,,,,,,,,,,,,,,,,,,,,,,,,,,,,,,,,,,,,,,,,,,,,,,
,,,,,,,,5e18552a51c080000e5d59ec,20,M,R,2020-09-09_10h38.40.132,Hybrid_Search_Task,2020.2.3,Win32,60,,,,,,,,,,,,,,,,,,,,,,,,,,,,,,,,,,,,,,,,,,,,,,,,,,,,,,,,,,,,,,,,,,,,,,,,,,,,,,,,0,16,16,0,1,Objects,bed,Stimuli/Objects/bed/510F16ita7L._AA262_.jpg,,,,,,,,,,,,,,,,,,,,,,,,,,,,,,,,,,,,,,,,,,,,,,,,,,,,,,,,,,,,,,,,,,,,,,,,,,,,,
,,,,,,,,5e18552a51c080000e5d59ec,20,M,R,2020-09-09_10h38.40.132,Hybrid_Search_Task,2020.2.3,Win32,60,,,,,,,,,,,,,,,,,,,,,,,,,,,,,,,,,,,,,,,,,,,,,,,,,,,,,,,,,,,,,,,,,,,,,,,,,,,,,,,,,,,,,,,,0,8,8,2,1,StimList/bed.xls,,,,,,,,,,,,,,,,,,,,,,,,,,,,,,,,,,,,,,,,,,,,,,,,,,,,,,,,,,,,,,,,,,,,,,,
,,,,,,,,5e18552a51c080000e5d59ec,20,M,R,2020-09-09_10h38.40.132,Hybrid_Search_Task,2020.2.3,Win32,60,,,,,,,,,,,,,,,,,,,,,,,,,,,,,,,,,,,,,,,,,,,,,,,,,,,,,,,,,,,,,,,,,,,,,,,,,,,,,,,,0,0,0,5,1,Objects,dumbbell,Stimuli/Objects/dumbbell/dumbell06.jpg,,,,,,,,,,,,,,,,,,,,,,,,,,,,,,,,,,,,,,,,,,,,,,,,,,,,,,,,,,,,,,,,,,,,,,,,,,,,,
,,,,,,,,5e18552a51c080000e5d59ec,20,M,R,2020-09-09_10h38.40.132,Hybrid_Search_Task,2020.2.3,Win32,60,,,,,,,,,,,,,,,,,,,,,,,,,,,,,,,,,,,,,,,,,,,,,,,,,,,,,,,,,,,,,,,,,,,,,,,,,,,,,,,,0,1,1,10,1,Objects,dumbbell,Stimuli/Objects/dumbbell/dumbell11.jpg,,,,,,,,,,,,,,,,,,,,,,,,,,,,,,,,,,,,,,,,,,,,,,,,,,,,,,,,,,,,,,,,,,,,,,,,,,,,,
,,,,,,,,5e18552a51c080000e5d59ec,20,M,R,2020-09-09_10h38.40.132,Hybrid_Search_Task,2020.2.3,Win32,60,,,,,,,,,,,,,,,,,,,,,,,,,,,,,,,,,,,,,,,,,,,,,,,,,,,,,,,,,,,,,,,,,,,,,,,,,,,,,,,,0,2,2,4,1,Objects,dumbbell,Stimuli/Objects/dumbbell/dumbell05.jpg,,,,,,,,,,,,,,,,,,,,,,,,,,,,,,,,,,,,,,,,,,,,,,,,,,,,,,,,,,,,,,,,,,,,,,,,,,,,,
,,,,,,,,5e18552a51c080000e5d59ec,20,M,R,2020-09-09_10h38.40.132,Hybrid_Search_Task,2020.2.3,Win32,60,,,,,,,,,,,,,,,,,,,,,,,,,,,,,,,,,,,,,,,,,,,,,,,,,,,,,,,,,,,,,,,,,,,,,,,,,,,,,,,,0,3,3,1,1,Objects,dumbbell,Stimuli/Objects/dumbbell/dumbell02.jpg,,,,,,,,,,,,,,,,,,,,,,,,,,,,,,,,,,,,,,,,,,,,,,,,,,,,,,,,,,,,,,,,,,,,,,,,,,,,,
,,,,,,,,5e18552a51c080000e5d59ec,20,M,R,2020-09-09_10h38.40.132,Hybrid_Search_Task,2020.2.3,Win32,60,,,,,,,,,,,,,,,,,,,,,,,,,,,,,,,,,,,,,,,,,,,,,,,,,,,,,,,,,,,,,,,,,,,,,,,,,,,,,,,,0,4,4,9,1,Objects,dumbbell,Stimuli/Objects/dumbbell/dumbell10.jpg,,,,,,,,,,,,,,,,,,,,,,,,,,,,,,,,,,,,,,,,,,,,,,,,,,,,,,,,,,,,,,,,,,,,,,,,,,,,,
,,,,,,,,5e18552a51c080000e5d59ec,20,M,R,2020-09-09_10h38.40.132,Hybrid_Search_Task,2020.2.3,Win32,60,,,,,,,,,,,,,,,,,,,,,,,,,,,,,,,,,,,,,,,,,,,,,,,,,,,,,,,,,,,,,,,,,,,,,,,,,,,,,,,,0,5,5,0,1,Objects,dumbbell,Stimuli/Objects/dumbbell/dumbell01.jpg,,,,,,,,,,,,,,,,,,,,,,,,,,,,,,,,,,,,,,,,,,,,,,,,,,,,,,,,,,,,,,,,,,,,,,,,,,,,,
,,,,,,,,5e18552a51c080000e5d59ec,20,M,R,2020-09-09_10h38.40.132,Hybrid_Search_Task,2020.2.3,Win32,60,,,,,,,,,,,,,,,,,,,,,,,,,,,,,,,,,,,,,,,,,,,,,,,,,,,,,,,,,,,,,,,,,,,,,,,,,,,,,,,,0,6,6,7,1,Objects,dumbbell,Stimuli/Objects/dumbbell/dumbell08.jpg,,,,,,,,,,,,,,,,,,,,,,,,,,,,,,,,,,,,,,,,,,,,,,,,,,,,,,,,,,,,,,,,,,,,,,,,,,,,,
,,,,,,,,5e18552a51c080000e5d59ec,20,M,R,2020-09-09_10h38.40.132,Hybrid_Search_Task,2020.2.3,Win32,60,,,,,,,,,,,,,,,,,,,,,,,,,,,,,,,,,,,,,,,,,,,,,,,,,,,,,,,,,,,,,,,,,,,,,,,,,,,,,,,,0,7,7,8,1,Objects,dumbbell,Stimuli/Objects/dumbbell/dumbell09.jpg,,,,,,,,,,,,,,,,,,,,,,,,,,,,,,,,,,,,,,,,,,,,,,,,,,,,,,,,,,,,,,,,,,,,,,,,,,,,,
,,,,,,,,5e18552a51c080000e5d59ec,20,M,R,2020-09-09_10h38.40.132,Hybrid_Search_Task,2020.2.3,Win32,60,,,,,,,,,,,,,,,,,,,,,,,,,,,,,,,,,,,,,,,,,,,,,,,,,,,,,,,,,,,,,,,,,,,,,,,,,,,,,,,,0,8,8,13,1,Objects,dumbbell,Stimuli/Objects/dumbbell/dumbell14.JPG,,,,,,,,,,,,,,,,,,,,,,,,,,,,,,,,,,,,,,,,,,,,,,,,,,,,,,,,,,,,,,,,,,,,,,,,,,,,,
,,,,,,,,5e18552a51c080000e5d59ec,20,M,R,2020-09-09_10h38.40.132,Hybrid_Search_Task,2020.2.3,Win32,60,,,,,,,,,,,,,,,,,,,,,,,,,,,,,,,,,,,,,,,,,,,,,,,,,,,,,,,,,,,,,,,,,,,,,,,,,,,,,,,,0,9,9,16,1,Objects,dumbbell,Stimuli/Objects/dumbbell/dumbell17.jpg,,,,,,,,,,,,,,,,,,,,,,,,,,,,,,,,,,,,,,,,,,,,,,,,,,,,,,,,,,,,,,,,,,,,,,,,,,,,,
,,,,,,,,5e18552a51c080000e5d59ec,20,M,R,2020-09-09_10h38.40.132,Hybrid_Search_Task,2020.2.3,Win32,60,,,,,,,,,,,,,,,,,,,,,,,,,,,,,,,,,,,,,,,,,,,,,,,,,,,,,,,,,,,,,,,,,,,,,,,,,,,,,,,,0,10,10,15,1,Objects,dumbbell,Stimuli/Objects/dumbbell/dumbell16.jpg,,,,,,,,,,,,,,,,,,,,,,,,,,,,,,,,,,,,,,,,,,,,,,,,,,,,,,,,,,,,,,,,,,,,,,,,,,,,,
,,,,,,,,5e18552a51c080000e5d59ec,20,M,R,2020-09-09_10h38.40.132,Hybrid_Search_Task,2020.2.3,Win32,60,,,,,,,,,,,,,,,,,,,,,,,,,,,,,,,,,,,,,,,,,,,,,,,,,,,,,,,,,,,,,,,,,,,,,,,,,,,,,,,,0,11,11,11,1,Objects,dumbbell,Stimuli/Objects/dumbbell/dumbell12.jpg,,,,,,,,,,,,,,,,,,,,,,,,,,,,,,,,,,,,,,,,,,,,,,,,,,,,,,,,,,,,,,,,,,,,,,,,,,,,,
,,,,,,,,5e18552a51c080000e5d59ec,20,M,R,2020-09-09_10h38.40.132,Hybrid_Search_Task,2020.2.3,Win32,60,,,,,,,,,,,,,,,,,,,,,,,,,,,,,,,,,,,,,,,,,,,,,,,,,,,,,,,,,,,,,,,,,,,,,,,,,,,,,,,,0,12,12,6,1,Objects,dumbbell,Stimuli/Objects/dumbbell/dumbell07.jpg,,,,,,,,,,,,,,,,,,,,,,,,,,,,,,,,,,,,,,,,,,,,,,,,,,,,,,,,,,,,,,,,,,,,,,,,,,,,,
,,,,,,,,5e18552a51c080000e5d59ec,20,M,R,2020-09-09_10h38.40.132,Hybrid_Search_Task,2020.2.3,Win32,60,,,,,,,,,,,,,,,,,,,,,,,,,,,,,,,,,,,,,,,,,,,,,,,,,,,,,,,,,,,,,,,,,,,,,,,,,,,,,,,,0,13,13,12,1,Objects,dumbbell,Stimuli/Objects/dumbbell/dumbell13.jpg,,,,,,,,,,,,,,,,,,,,,,,,,,,,,,,,,,,,,,,,,,,,,,,,,,,,,,,,,,,,,,,,,,,,,,,,,,,,,
,,,,,,,,5e18552a51c080000e5d59ec,20,M,R,2020-09-09_10h38.40.132,Hybrid_Search_Task,2020.2.3,Win32,60,,,,,,,,,,,,,,,,,,,,,,,,,,,,,,,,,,,,,,,,,,,,,,,,,,,,,,,,,,,,,,,,,,,,,,,,,,,,,,,,0,14,14,3,1,Objects,dumbbell,Stimuli/Objects/dumbbell/dumbell04.jpg,,,,,,,,,,,,,,,,,,,,,,,,,,,,,,,,,,,,,,,,,,,,,,,,,,,,,,,,,,,,,,,,,,,,,,,,,,,,,
,,,,,,,,5e18552a51c080000e5d59ec,20,M,R,2020-09-09_10h38.40.132,Hybrid_Search_Task,2020.2.3,Win32,60,,,,,,,,,,,,,,,,,,,,,,,,,,,,,,,,,,,,,,,,,,,,,,,,,,,,,,,,,,,,,,,,,,,,,,,,,,,,,,,,0,15,15,2,1,Objects,dumbbell,Stimuli/Objects/dumbbell/dumbell03.jpg,,,,,,,,,,,,,,,,,,,,,,,,,,,,,,,,,,,,,,,,,,,,,,,,,,,,,,,,,,,,,,,,,,,,,,,,,,,,,
,,,,,,,,5e18552a51c080000e5d59ec,20,M,R,2020-09-09_10h38.40.132,Hybrid_Search_Task,2020.2.3,Win32,60,,,,,,,,,,,,,,,,,,,,,,,,,,,,,,,,,,,,,,,,,,,,,,,,,,,,,,,,,,,,,,,,,,,,,,,,,,,,,,,,0,16,16,14,1,Objects,dumbbell,Stimuli/Objects/dumbbell/dumbell15.jpg,,,,,,,,,,,,,,,,,,,,,,,,,,,,,,,,,,,,,,,,,,,,,,,,,,,,,,,,,,,,,,,,,,,,,,,,,,,,,
,,,,,,,,5e18552a51c080000e5d59ec,20,M,R,2020-09-09_10h38.40.132,Hybrid_Search_Task,2020.2.3,Win32,60,,,,,,,,,,,,,,,,,,,,,,,,,,,,,,,,,,,,,,,,,,,,,,,,,,,,,,,,,,,,,,,,,,,,,,,,,,,,,,,,,,,,,,,,0,9,9,13,1,StimList/dumbbell.xls,,,,,,,,,,,,,,,,,,,,,,,,,,,,,,,,,,,,,,,,,,,,,,,,,,,,,,,,,,,,,,,,,,,,,,,
,,,,,,,,5e18552a51c080000e5d59ec,20,M,R,2020-09-09_10h38.40.132,Hybrid_Search_Task,2020.2.3,Win32,60,,,,,,,,,,,,,,,,,,,,,,,,,,,,,,,,,,,,,,,,,,,,,,,,,,,,,,,,,,,,,,,,,,,,,,,,,,,,,,,,0,0,0,15,1,Objects,motorcycle,Stimuli/Objects/motorcycle/speedbike.jpg,,,,,,,,,,,,,,,,,,,,,,,,,,,,,,,,,,,,,,,,,,,,,,,,,,,,,,,,,,,,,,,,,,,,,,,,,,,,,
,,,,,,,,5e18552a51c080000e5d59ec,20,M,R,2020-09-09_10h38.40.132,Hybrid_Search_Task,2020.2.3,Win32,60,,,,,,,,,,,,,,,,,,,,,,,,,,,,,,,,,,,,,,,,,,,,,,,,,,,,,,,,,,,,,,,,,,,,,,,,,,,,,,,,0,1,1,7,1,Objects,motorcycle,Stimuli/Objects/motorcycle/motorcycle30.jpg,,,,,,,,,,,,,,,,,,,,,,,,,,,,,,,,,,,,,,,,,,,,,,,,,,,,,,,,,,,,,,,,,,,,,,,,,,,,,
,,,,,,,,5e18552a51c080000e5d59ec,20,M,R,2020-09-09_10h38.40.132,Hybrid_Search_Task,2020.2.3,Win32,60,,,,,,,,,,,,,,,,,,,,,,,,,,,,,,,,,,,,,,,,,,,,,,,,,,,,,,,,,,,,,,,,,,,,,,,,,,,,,,,,0,2,2,14,1,Objects,motorcycle,Stimuli/Objects/motorcycle/MotoSmall.jpg,,,,,,,,,,,,,,,,,,,,,,,,,,,,,,,,,,,,,,,,,,,,,,,,,,,,,,,,,,,,,,,,,,,,,,,,,,,,,
,,,,,,,,5e18552a51c080000e5d59ec,20,M,R,2020-09-09_10h38.40.132,Hybrid_Search_Task,2020.2.3,Win32,60,,,,,,,,,,,,,,,,,,,,,,,,,,,,,,,,,,,,,,,,,,,,,,,,,,,,,,,,,,,,,,,,,,,,,,,,,,,,,,,,0,3,3,12,1,Objects,motorcycle,Stimuli/Objects/motorcycle/motorcycle46.jpg,,,,,,,,,,,,,,,,,,,,,,,,,,,,,,,,,,,,,,,,,,,,,,,,,,,,,,,,,,,,,,,,,,,,,,,,,,,,,
,,,,,,,,5e18552a51c080000e5d59ec,20,M,R,2020-09-09_10h38.40.132,Hybrid_Search_Task,2020.2.3,Win32,60,,,,,,,,,,,,,,,,,,,,,,,,,,,,,,,,,,,,,,,,,,,,,,,,,,,,,,,,,,,,,,,,,,,,,,,,,,,,,,,,0,4,4,8,1,Objects,motorcycle,Stimuli/Objects/motorcycle/motorcycle33.jpg,,,,,,,,,,,,,,,,,,,,,,,,,,,,,,,,,,,,,,,,,,,,,,,,,,,,,,,,,,,,,,,,,,,,,,,,,,,,,
,,,,,,,,5e18552a51c080000e5d59ec,20,M,R,2020-09-09_10h38.40.132,Hybrid_Search_Task,2020.2.3,Win32,60,,,,,,,,,,,,,,,,,,,,,,,,,,,,,,,,,,,,,,,,,,,,,,,,,,,,,,,,,,,,,,,,,,,,,,,,,,,,,,,,0,5,5,0,1,Objects,motorcycle,Stimuli/Objects/motorcycle/2005-Buell-FireboltXB12R.jpg,,,,,,,,,,,,,,,,,,,,,,,,,,,,,,,,,,,,,,,,,,,,,,,,,,,,,,,,,,,,,,,,,,,,,,,,,,,,,
,,,,,,,,5e18552a51c080000e5d59ec,20,M,R,2020-09-09_10h38.40.132,Hybrid_Search_Task,2020.2.3,Win32,60,,,,,,,,,,,,,,,,,,,,,,,,,,,,,,,,,,,,,,,,,,,,,,,,,,,,,,,,,,,,,,,,,,,,,,,,,,,,,,,,0,6,6,10,1,Objects,motorcycle,Stimuli/Objects/motorcycle/motorcycle40.jpg,,,,,,,,,,,,,,,,,,,,,,,,,,,,,,,,,,,,,,,,,,,,,,,,,,,,,,,,,,,,,,,,,,,,,,,,,,,,,
,,,,,,,,5e18552a51c080000e5d59ec,20,M,R,2020-09-09_10h38.40.132,Hybrid_Search_Task,2020.2.3,Win32,60,,,,,,,,,,,,,,,,,,,,,,,,,,,,,,,,,,,,,,,,,,,,,,,,,,,,,,,,,,,,,,,,,,,,,,,,,,,,,,,,0,7,7,13,1,Objects,motorcycle,Stimuli/Objects/motorcycle/Motorcycle903425j2.jpg,,,,,,,,,,,,,,,,,,,,,,,,,,,,,,,,,,,,,,,,,,,,,,,,,,,,,,,,,,,,,,,,,,,,,,,,,,,,,
,,,,,,,,5e18552a51c080000e5d59ec,20,M,R,2020-09-09_10h38.40.132,Hybrid_Search_Task,2020.2.3,Win32,60,,,,,,,,,,,,,,,,,,,,,,,,,,,,,,,,,,,,,,,,,,,,,,,,,,,,,,,,,,,,,,,,,,,,,,,,,,,,,,,,0,8,8,2,1,Objects,motorcycle,Stimuli/Objects/motorcycle/hawkgt-red-lrg.jpg,,,,,,,,,,,,,,,,,,,,,,,,,,,,,,,,,,,,,,,,,,,,,,,,,,,,,,,,,,,,,,,,,,,,,,,,,,,,,
,,,,,,,,5e18552a51c080000e5d59ec,20,M,R,2020-09-09_10h38.40.132,Hybrid_Search_Task,2020.2.3,Win32,60,,,,,,,,,,,,,,,,,,,,,,,,,,,,,,,,,,,,,,,,,,,,,,,,,,,,,,,,,,,,,,,,,,,,,,,,,,,,,,,,0,9,9,3,1,Objects,motorcycle,Stimuli/Objects/motorcycle/motorcycle101.jpg,,,,,,,,,,,,,,,,,,,,,,,,,,,,,,,,,,,,,,,,,,,,,,,,,,,,,,,,,,,,,,,,,,,,,,,,,,,,,
,,,,,,,,5e18552a51c080000e5d59ec,20,M,R,2020-09-09_10h38.40.132,Hybrid_Search_Task,2020.2.3,Win32,60,,,,,,,,,,,,,,,,,,,,,,,,,,,,,,,,,,,,,,,,,,,,,,,,,,,,,,,,,,,,,,,,,,,,,,,,,,,,,,,,0,10,10,6,1,Objects,motorcycle,Stimuli/Objects/motorcycle/motorcycle17.jpg,,,,,,,,,,,,,,,,,,,,,,,,,,,,,,,,,,,,,,,,,,,,,,,,,,,,,,,,,,,,,,,,,,,,,,,,,,,,,
,,,,,,,,5e18552a51c080000e5d59ec,20,M,R,2020-09-09_10h38.40.132,Hybrid_Search_Task,2020.2.3,Win32,60,,,,,,,,,,,,,,,,,,,,,,,,,,,,,,,,,,,,,,,,,,,,,,,,,,,,,,,,,,,,,,,,,,,,,,,,,,,,,,,,0,11,11,11,1,Objects,motorcycle,Stimuli/Objects/motorcycle/motorcycle45364t4t.jpg,,,,,,,,,,,,,,,,,,,,,,,,,,,,,,,,,,,,,,,,,,,,,,,,,,,,,,,,,,,,,,,,,,,,,,,,,,,,,
,,,,,,,,5e18552a51c080000e5d59ec,20,M,R,2020-09-09_10h38.40.132,Hybrid_Search_Task,2020.2.3,Win32,60,,,,,,,,,,,,,,,,,,,,,,,,,,,,,,,,,,,,,,,,,,,,,,,,,,,,,,,,,,,,,,,,,,,,,,,,,,,,,,,,0,12,12,16,1,Objects,motorcycle,Stimuli/Objects/motorcycle/sportmotorcycle.jpg,,,,,,,,,,,,,,,,,,,,,,,,,,,,,,,,,,,,,,,,,,,,,,,,,,,,,,,,,,,,,,,,,,,,,,,,,,,,,
,,,,,,,,5e18552a51c080000e5d59ec,20,M,R,2020-09-09_10h38.40.132,Hybrid_Search_Task,2020.2.3,Win32,60,,,,,,,,,,,,,,,,,,,,,,,,,,,,,,,,,,,,,,,,,,,,,,,,,,,,,,,,,,,,,,,,,,,,,,,,,,,,,,,,0,13,13,5,1,Objects,motorcycle,Stimuli/Objects/motorcycle/motorcycle14.jpg,,,,,,,,,,,,,,,,,,,,,,,,,,,,,,,,,,,,,,,,,,,,,,,,,,,,,,,,,,,,,,,,,,,,,,,,,,,,,
,,,,,,,,5e18552a51c080000e5d59ec,20,M,R,2020-09-09_10h38.40.132,Hybrid_Search_Task,2020.2.3,Win32,60,,,,,,,,,,,,,,,,,,,,,,,,,,,,,,,,,,,,,,,,,,,,,,,,,,,,,,,,,,,,,,,,,,,,,,,,,,,,,,,,0,14,14,4,1,Objects,motorcycle,Stimuli/Objects/motorcycle/motorcycle11.jpg,,,,,,,,,,,,,,,,,,,,,,,,,,,,,,,,,,,,,,,,,,,,,,,,,,,,,,,,,,,,,,,,,,,,,,,,,,,,,
,,,,,,,,5e18552a51c080000e5d59ec,20,M,R,2020-09-09_10h38.40.132,Hybrid_Search_Task,2020.2.3,Win32,60,,,,,,,,,,,,,,,,,,,,,,,,,,,,,,,,,,,,,,,,,,,,,,,,,,,,,,,,,,,,,,,,,,,,,,,,,,,,,,,,0,15,15,9,1,Objects,motorcycle,Stimuli/Objects/motorcycle/motorcycle35.jpg,,,,,,,,,,,,,,,,,,,,,,,,,,,,,,,,,,,,,,,,,,,,,,,,,,,,,,,,,,,,,,,,,,,,,,,,,,,,,
,,,,,,,,5e18552a51c080000e5d59ec,20,M,R,2020-09-09_10h38.40.132,Hybrid_Search_Task,2020.2.3,Win32,60,,,,,,,,,,,,,,,,,,,,,,,,,,,,,,,,,,,,,,,,,,,,,,,,,,,,,,,,,,,,,,,,,,,,,,,,,,,,,,,,0,16,16,1,1,Objects,motorcycle,Stimuli/Objects/motorcycle/2006-Buell-LightningXB12Sa.jpg,,,,,,,,,,,,,,,,,,,,,,,,,,,,,,,,,,,,,,,,,,,,,,,,,,,,,,,,,,,,,,,,,,,,,,,,,,,,,
,,,,,,,,5e18552a51c080000e5d59ec,20,M,R,2020-09-09_10h38.40.132,Hybrid_Search_Task,2020.2.3,Win32,60,,,,,,,,,,,,,,,,,,,,,,,,,,,,,,,,,,,,,,,,,,,,,,,,,,,,,,,,,,,,,,,,,,,,,,,,,,,,,,,,,,,,,,,,0,10,10,23,1,StimList/motorcycle.xls,,,,,,,,,,,,,,,,,,,,,,,,,,,,,,,,,,,,,,,,,,,,,,,,,,,,,,,,,,,,,,,,,,,,,,,
,,,,,,,,5e18552a51c080000e5d59ec,20,M,R,2020-09-09_10h38.40.132,Hybrid_Search_Task,2020.2.3,Win32,60,,,,,,,,,,,,,,,,,,,,,,,,,,,,,,,,,,,,,,,,,,,,,,,,,,,,,,,,,,,,,,,,,,,,,,,,,,,,,,,,0,0,0,0,1,Objects,glove,Stimuli/Objects/glove/7450-Pro-Gloves-Long-Back.jpg,,,,,,,,,,,,,,,,,,,,,,,,,,,,,,,,,,,,,,,,,,,,,,,,,,,,,,,,,,,,,,,,,,,,,,,,,,,,,
,,,,,,,,5e18552a51c080000e5d59ec,20,M,R,2020-09-09_10h38.40.132,Hybrid_Search_Task,2020.2.3,Win32,60,,,,,,,,,,,,,,,,,,,,,,,,,,,,,,,,,,,,,,,,,,,,,,,,,,,,,,,,,,,,,,,,,,,,,,,,,,,,,,,,0,1,1,10,1,Objects,glove,Stimuli/Objects/glove/Awinterglove2.jpg,,,,,,,,,,,,,,,,,,,,,,,,,,,,,,,,,,,,,,,,,,,,,,,,,,,,,,,,,,,,,,,,,,,,,,,,,,,,,
,,,,,,,,5e18552a51c080000e5d59ec,20,M,R,2020-09-09_10h38.40.132,Hybrid_Search_Task,2020.2.3,Win32,60,,,,,,,,,,,,,,,,,,,,,,,,,,,,,,,,,,,,,,,,,,,,,,,,,,,,,,,,,,,,,,,,,,,,,,,,,,,,,,,,0,2,2,6,1,Objects,glove,Stimuli/Objects/glove/Amitten9.jpg,,,,,,,,,,,,,,,,,,,,,,,,,,,,,,,,,,,,,,,,,,,,,,,,,,,,,,,,,,,,,,,,,,,,,,,,,,,,,
,,,,,,,,5e18552a51c080000e5d59ec,20,M,R,2020-09-09_10h38.40.132,Hybrid_Search_Task,2020.2.3,Win32,60,,,,,,,,,,,,,,,,,,,,,,,,,,,,,,,,,,,,,,,,,,,,,,,,,,,,,,,,,,,,,,,,,,,,,,,,,,,,,,,,0,3,3,4,1,Objects,glove,Stimuli/Objects/glove/AGLOVES5.jpg,,,,,,,,,,,,,,,,,,,,,,,,,,,,,,,,,,,,,,,,,,,,,,,,,,,,,,,,,,,,,,,,,,,,,,,,,,,,,
,,,,,,,,5e18552a51c080000e5d59ec,20,M,R,2020-09-09_10h38.40.132,Hybrid_Search_Task,2020.2.3,Win32,60,,,,,,,,,,,,,,,,,,,,,,,,,,,,,,,,,,,,,,,,,,,,,,,,,,,,,,,,,,,,,,,,,,,,,,,,,,,,,,,,0,4,4,15,1,Objects,glove,Stimuli/Objects/glove/golf-glove.jpg,,,,,,,,,,,,,,,,,,,,,,,,,,,,,,,,,,,,,,,,,,,,,,,,,,,,,,,,,,,,,,,,,,,,,,,,,,,,,
,,,,,,,,5e18552a51c080000e5d59ec,20,M,R,2020-09-09_10h38.40.132,Hybrid_Search_Task,2020.2.3,Win32,60,,,,,,,,,,,,,,,,,,,,,,,,,,,,,,,,,,,,,,,,,,,,,,,,,,,,,,,,,,,,,,,,,,,,,,,,,,,,,,,,0,5,5,12,1,Objects,glove,Stimuli/Objects/glove/black_alpaca_glova.jpg,,,,,,,,,,,,,,,,,,,,,,,,,,,,,,,,,,,,,,,,,,,,,,,,,,,,,,,,,,,,,,,,,,,,,,,,,,,,,
,,,,,,,,5e18552a51c080000e5d59ec,20,M,R,2020-09-09_10h38.40.132,Hybrid_Search_Task,2020.2.3,Win32,60,,,,,,,,,,,,,,,,,,,,,,,,,,,,,,,,,,,,,,,,,,,,,,,,,,,,,,,,,,,,,,,,,,,,,,,,,,,,,,,,0,6,6,7,1,Objects,glove,Stimuli/Objects/glove/Aweldersglove.jpg,,,,,,,,,,,,,,,,,,,,,,,,,,,,,,,,,,,,,,,,,,,,,,,,,,,,,,,,,,,,,,,,,,,,,,,,,,,,,
,,,,,,,,5e18552a51c080000e5d59ec,20,M,R,2020-09-09_10h38.40.132,Hybrid_Search_Task,2020.2.3,Win32,60,,,,,,,,,,,,,,,,,,,,,,,,,,,,,,,,,,,,,,,,,,,,,,,,,,,,,,,,,,,,,,,,,,,,,,,,,,,,,,,,0,7,7,14,1,Objects,glove,Stimuli/Objects/glove/glove1.jpg,,,,,,,,,,,,,,,,,,,,,,,,,,,,,,,,,,,,,,,,,,,,,,,,,,,,,,,,,,,,,,,,,,,,,,,,,,,,,
,,,,,,,,5e18552a51c080000e5d59ec,20,M,R,2020-09-09_10h38.40.132,Hybrid_Search_Task,2020.2.3,Win32,60,,,,,,,,,,,,,,,,,,,,,,,,,,,,,,,,,,,,,,,,,,,,,,,,,,,,,,,,,,,,,,,,,,,,,,,,,,,,,,,,0,8,8,16,1,Objects,glove,Stimuli/Objects/glove/jp glove top.jpg,,,,,,,,,,,,,,,,,,,,,,,,,,,,,,,,,,,,,,,,,,,,,,,,,,,,,,,,,,,,,,,,,,,,,,,,,,,,,
,,,,,,,,5e18552a51c080000e5d59ec,20,M,R,2020-09-09_10h38.40.132,Hybrid_Search_Task,2020.2.3,Win32,60,,,,,,,,,,,,,,,,,,,,,,,,,,,,,,,,,,,,,,,,,,,,,,,,,,,,,,,,,,,,,,,,,,,,,,,,,,,,,,,,0,9,9,9,1,Objects,glove,Stimuli/Objects/glove/Awinterglov14.jpg,,,,,,,,,,,,,,,,,,,,,,,,,,,,,,,,,,,,,,,,,,,,,,,,,,,,,,,,,,,,,,,,,,,,,,,,,,,,,
,,,,,,,,5e18552a51c080000e5d59ec,20,M,R,2020-09-09_10h38.40.132,Hybrid_Search_Task,2020.2.3,Win32,60,,,,,,,,,,,,,,,,,,,,,,,,,,,,,,,,,,,,,,,,,,,,,,,,,,,,,,,,,,,,,,,,,,,,,,,,,,,,,,,,0,10,10,5,1,Objects,glove,Stimuli/Objects/glove/AHOCKGLO2.jpg,,,,,,,,,,,,,,,,,,,,,,,,,,,,,,,,,,,,,,,,,,,,,,,,,,,,,,,,,,,,,,,,,,,,,,,,,,,,,
,,,,,,,,5e18552a51c080000e5d59ec,20,M,R,2020-09-09_10h38.40.132,Hybrid_Search_Task,2020.2.3,Win32,60,,,,,,,,,,,,,,,,,,,,,,,,,,,,,,,,,,,,,,,,,,,,,,,,,,,,,,,,,,,,,,,,,,,,,,,,,,,,,,,,0,11,11,1,1,Objects,glove,Stimuli/Objects/glove/ABLACGLOV.jpg,,,,,,,,,,,,,,,,,,,,,,,,,,,,,,,,,,,,,,,,,,,,,,,,,,,,,,,,,,,,,,,,,,,,,,,,,,,,,
,,,,,,,,5e18552a51c080000e5d59ec,20,M,R,2020-09-09_10h38.40.132,Hybrid_Search_Task,2020.2.3,Win32,60,,,,,,,,,,,,,,,,,,,,,,,,,,,,,,,,,,,,,,,,,,,,,,,,,,,,,,,,,,,,,,,,,,,,,,,,,,,,,,,,0,12,12,2,1,Objects,glove,Stimuli/Objects/glove/ABOXGLOV3.jpg,,,,,,,,,,,,,,,,,,,,,,,,,,,,,,,,,,,,,,,,,,,,,,,,,,,,,,,,,,,,,,,,,,,,,,,,,,,,,
,,,,,,,,5e18552a51c080000e5d59ec,20,M,R,2020-09-09_10h38.40.132,Hybrid_Search_Task,2020.2.3,Win32,60,,,,,,,,,,,,,,,,,,,,,,,,,,,,,,,,,,,,,,,,,,,,,,,,,,,,,,,,,,,,,,,,,,,,,,,,,,,,,,,,0,13,13,8,1,Objects,glove,Stimuli/Objects/glove/Awinterglov13.jpg,,,,,,,,,,,,,,,,,,,,,,,,,,,,,,,,,,,,,,,,,,,,,,,,,,,,,,,,,,,,,,,,,,,,,,,,,,,,,
,,,,,,,,5e18552a51c080000e5d59ec,20,M,R,2020-09-09_10h38.40.132,Hybrid_Search_Task,2020.2.3,Win32,60,,,,,,,,,,,,,,,,,,,,,,,,,,,,,,,,,,,,,,,,,,,,,,,,,,,,,,,,,,,,,,,,,,,,,,,,,,,,,,,,0,14,14,3,1,Objects,glove,Stimuli/Objects/glove/AGLOVES.jpg,,,,,,,,,,,,,,,,,,,,,,,,,,,,,,,,,,,,,,,,,,,,,,,,,,,,,,,,,,,,,,,,,,,,,,,,,,,,,
,,,,,,,,5e18552a51c080000e5d59ec,20,M,R,2020-09-09_10h38.40.132,Hybrid_Search_Task,2020.2.3,Win32,60,,,,,,,,,,,,,,,,,,,,,,,,,,,,,,,,,,,,,,,,,,,,,,,,,,,,,,,,,,,,,,,,,,,,,,,,,,,,,,,,0,15,15,11,1,Objects,glove,Stimuli/Objects/glove/Awinterglove9.jpg,,,,,,,,,,,,,,,,,,,,,,,,,,,,,,,,,,,,,,,,,,,,,,,,,,,,,,,,,,,,,,,,,,,,,,,,,,,,,
,,,,,,,,5e18552a51c080000e5d59ec,20,M,R,2020-09-09_10h38.40.132,Hybrid_Search_Task,2020.2.3,Win32,60,,,,,,,,,,,,,,,,,,,,,,,,,,,,,,,,,,,,,,,,,,,,,,,,,,,,,,,,,,,,,,,,,,,,,,,,,,,,,,,,0,16,16,13,1,Objects,glove,Stimuli/Objects/glove/gauntlet_3kev_leather_motorcycle_biker_gloves_b(250).jpg,,,,,,,,,,,,,,,,,,,,,,,,,,,,,,,,,,,,,,,,,,,,,,,,,,,,,,,,,,,,,,,,,,,,,,,,,,,,,
,,,,,,,,5e18552a51c080000e5d59ec,20,M,R,2020-09-09_10h38.40.132,Hybrid_Search_Task,2020.2.3,Win32,60,,,,,,,,,,,,,,,,,,,,,,,,,,,,,,,,,,,,,,,,,,,,,,,,,,,,,,,,,,,,,,,,,,,,,,,,,,,,,,,,,,,,,,,,0,11,11,15,1,StimList/glove.xls,,,,,,,,,,,,,,,,,,,,,,,,,,,,,,,,,,,,,,,,,,,,,,,,,,,,,,,,,,,,,,,,,,,,,,,
,,,,,,,,5e18552a51c080000e5d59ec,20,M,R,2020-09-09_10h38.40.132,Hybrid_Search_Task,2020.2.3,Win32,60,,,,,,,,,,,,,,,,,,,,,,,,,,,,,,,,,,,,,,,,,,,,,,,,,,,,,,,,,,,,,,,,,,,,,,,,,,,,,,,,0,0,0,7,1,Objects,spoon,Stimuli/Objects/spoon/cuillere_amuse_bouche_plate.jpg,,,,,,,,,,,,,,,,,,,,,,,,,,,,,,,,,,,,,,,,,,,,,,,,,,,,,,,,,,,,,,,,,,,,,,,,,,,,,
,,,,,,,,5e18552a51c080000e5d59ec,20,M,R,2020-09-09_10h38.40.132,Hybrid_Search_Task,2020.2.3,Win32,60,,,,,,,,,,,,,,,,,,,,,,,,,,,,,,,,,,,,,,,,,,,,,,,,,,,,,,,,,,,,,,,,,,,,,,,,,,,,,,,,0,1,1,11,1,Objects,spoon,Stimuli/Objects/spoon/iir.jpg,,,,,,,,,,,,,,,,,,,,,,,,,,,,,,,,,,,,,,,,,,,,,,,,,,,,,,,,,,,,,,,,,,,,,,,,,,,,,
,,,,,,,,5e18552a51c080000e5d59ec,20,M,R,2020-09-09_10h38.40.132,Hybrid_Search_Task,2020.2.3,Win32,60,,,,,,,,,,,,,,,,,,,,,,,,,,,,,,,,,,,,,,,,,,,,,,,,,,,,,,,,,,,,,,,,,,,,,,,,,,,,,,,,0,2,2,10,1,Objects,spoon,Stimuli/Objects/spoon/hhar.jpg,,,,,,,,,,,,,,,,,,,,,,,,,,,,,,,,,,,,,,,,,,,,,,,,,,,,,,,,,,,,,,,,,,,,,,,,,,,,,
,,,,,,,,5e18552a51c080000e5d59ec,20,M,R,2020-09-09_10h38.40.132,Hybrid_Search_Task,2020.2.3,Win32,60,,,,,,,,,,,,,,,,,,,,,,,,,,,,,,,,,,,,,,,,,,,,,,,,,,,,,,,,,,,,,,,,,,,,,,,,,,,,,,,,0,3,3,8,1,Objects,spoon,Stimuli/Objects/spoon/cuillere_balance_digitale_verte.jpg,,,,,,,,,,,,,,,,,,,,,,,,,,,,,,,,,,,,,,,,,,,,,,,,,,,,,,,,,,,,,,,,,,,,,,,,,,,,,
,,,,,,,,5e18552a51c080000e5d59ec,20,M,R,2020-09-09_10h38.40.132,Hybrid_Search_Task,2020.2.3,Win32,60,,,,,,,,,,,,,,,,,,,,,,,,,,,,,,,,,,,,,,,,,,,,,,,,,,,,,,,,,,,,,,,,,,,,,,,,,,,,,,,,0,4,4,2,1,Objects,spoon,Stimuli/Objects/spoon/33r.jpg,,,,,,,,,,,,,,,,,,,,,,,,,,,,,,,,,,,,,,,,,,,,,,,,,,,,,,,,,,,,,,,,,,,,,,,,,,,,,
,,,,,,,,5e18552a51c080000e5d59ec,20,M,R,2020-09-09_10h38.40.132,Hybrid_Search_Task,2020.2.3,Win32,60,,,,,,,,,,,,,,,,,,,,,,,,,,,,,,,,,,,,,,,,,,,,,,,,,,,,,,,,,,,,,,,,,,,,,,,,,,,,,,,,0,5,5,15,1,Objects,spoon,Stimuli/Objects/spoon/sppon2.jpg,,,,,,,,,,,,,,,,,,,,,,,,,,,,,,,,,,,,,,,,,,,,,,,,,,,,,,,,,,,,,,,,,,,,,,,,,,,,,
,,,,,,,,5e18552a51c080000e5d59ec,20,M,R,2020-09-09_10h38.40.132,Hybrid_Search_Task,2020.2.3,Win32,60,,,,,,,,,,,,,,,,,,,,,,,,,,,,,,,,,,,,,,,,,,,,,,,,,,,,,,,,,,,,,,,,,,,,,,,,,,,,,,,,0,6,6,5,1,Objects,spoon,Stimuli/Objects/spoon/cuillere-africaine-dan-ca.jpg,,,,,,,,,,,,,,,,,,,,,,,,,,,,,,,,,,,,,,,,,,,,,,,,,,,,,,,,,,,,,,,,,,,,,,,,,,,,,
,,,,,,,,5e18552a51c080000e5d59ec,20,M,R,2020-09-09_10h38.40.132,Hybrid_Search_Task,2020.2.3,Win32,60,,,,,,,,,,,,,,,,,,,,,,,,,,,,,,,,,,,,,,,,,,,,,,,,,,,,,,,,,,,,,,,,,,,,,,,,,,,,,,,,0,7,7,12,1,Objects,spoon,Stimuli/Objects/spoon/rrr.jpg,,,,,,,,,,,,,,,,,,,,,,,,,,,,,,,,,,,,,,,,,,,,,,,,,,,,,,,,,,,,,,,,,,,,,,,,,,,,,
,,,,,,,,5e18552a51c080000e5d59ec,20,M,R,2020-09-09_10h38.40.132,Hybrid_Search_Task,2020.2.3,Win32,60,,,,,,,,,,,,,,,,,,,,,,,,,,,,,,,,,,,,,,,,,,,,,,,,,,,,,,,,,,,,,,,,,,,,,,,,,,,,,,,,0,8,8,3,1,Objects,spoon,Stimuli/Objects/spoon/4004b.jpg,,,,,,,,,,,,,,,,,,,,,,,,,,,,,,,,,,,,,,,,,,,,,,,,,,,,,,,,,,,,,,,,,,,,,,,,,,,,,
,,,,,,,,5e18552a51c080000e5d59ec,20,M,R,2020-09-09_10h38.40.132,Hybrid_Search_Task,2020.2.3,Win32,60,,,,,,,,,,,,,,,,,,,,,,,,,,,,,,,,,,,,,,,,,,,,,,,,,,,,,,,,,,,,,,,,,,,,,,,,,,,,,,,,0,9,9,0,1,Objects,spoon,Stimuli/Objects/spoon/060350.jpg,,,,,,,,,,,,,,,,,,,,,,,,,,,,,,,,,,,,,,,,,,,,,,,,,,,,,,,,,,,,,,,,,,,,,,,,,,,,,
,,,,,,,,5e18552a51c080000e5d59ec,20,M,R,2020-09-09_10h38.40.132,Hybrid_Search_Task,2020.2.3,Win32,60,,,,,,,,,,,,,,,,,,,,,,,,,,,,,,,,,,,,,,,,,,,,,,,,,,,,,,,,,,,,,,,,,,,,,,,,,,,,,,,,0,10,10,6,1,Objects,spoon,Stimuli/Objects/spoon/cuillere.jpg,,,,,,,,,,,,,,,,,,,,,,,,,,,,,,,,,,,,,,,,,,,,,,,,,,,,,,,,,,,,,,,,,,,,,,,,,,,,,
,,,,,,,,5e18552a51c080000e5d59ec,20,M,R,2020-09-09_10h38.40.132,Hybrid_Search_Task,2020.2.3,Win32,60,,,,,,,,,,,,,,,,,,,,,,,,,,,,,,,,,,,,,,,,,,,,,,,,,,,,,,,,,,,,,,,,,,,,,,,,,,,,,,,,0,11,11,4,1,Objects,spoon,Stimuli/Objects/spoon/720-1.jpg,,,,,,,,,,,,,,,,,,,,,,,,,,,,,,,,,,,,,,,,,,,,,,,,,,,,,,,,,,,,,,,,,,,,,,,,,,,,,
,,,,,,,,5e18552a51c080000e5d59ec,20,M,R,2020-09-09_10h38.40.132,Hybrid_Search_Task,2020.2.3,Win32,60,,,,,,,,,,,,,,,,,,,,,,,,,,,,,,,,,,,,,,,,,,,,,,,,,,,,,,,,,,,,,,,,,,,,,,,,,,,,,,,,0,12,12,13,1,Objects,spoon,Stimuli/Objects/spoon/spoon3.jpg,,,,,,,,,,,,,,,,,,,,,,,,,,,,,,,,,,,,,,,,,,,,,,,,,,,,,,,,,,,,,,,,,,,,,,,,,,,,,
,,,,,,,,5e18552a51c080000e5d59ec,20,M,R,2020-09-09_10h38.40.132,Hybrid_Search_Task,2020.2.3,Win32,60,,,,,,,,,,,,,,,,,,,,,,,,,,,,,,,,,,,,,,,,,,,,,,,,,,,,,,,,,,,,,,,,,,,,,,,,,,,,,,,,0,13,13,1,1,Objects,spoon,Stimuli/Objects/spoon/198_cuillere.jpg,,,,,,,,,,,,,,,,,,,,,,,,,,,,,,,,,,,,,,,,,,,,,,,,,,,,,,,,,,,,,,,,,,,,,,,,,,,,,
,,,,,,,,5e18552a51c080000e5d59ec,20,M,R,2020-09-09_10h38.40.132,Hybrid_Search_Task,2020.2.3,Win32,60,,,,,,,,,,,,,,,,,,,,,,,,,,,,,,,,,,,,,,,,,,,,,,,,,,,,,,,,,,,,,,,,,,,,,,,,,,,,,,,,0,14,14,9,1,Objects,spoon,Stimuli/Objects/spoon/cuilllercuiller.jpg,,,,,,,,,,,,,,,,,,,,,,,,,,,,,,,,,,,,,,,,,,,,,,,,,,,,,,,,,,,,,,,,,,,,,,,,,,,,,
,,,,,,,,5e18552a51c080000e5d59ec,20,M,R,2020-09-09_10h38.40.132,Hybrid_Search_Task,2020.2.3,Win32,60,,,,,,,,,,,,,,,,,,,,,,,,,,,,,,,,,,,,,,,,,,,,,,,,,,,,,,,,,,,,,,,,,,,,,,,,,,,,,,,,0,15,15,14,1,Objects,spoon,Stimuli/Objects/spoon/spoonr.jpg,,,,,,,,,,,,,,,,,,,,,,,,,,,,,,,,,,,,,,,,,,,,,,,,,,,,,,,,,,,,,,,,,,,,,,,,,,,,,
,,,,,,,,5e18552a51c080000e5d59ec,20,M,R,2020-09-09_10h38.40.132,Hybrid_Search_Task,2020.2.3,Win32,60,,,,,,,,,,,,,,,,,,,,,,,,,,,,,,,,,,,,,,,,,,,,,,,,,,,,,,,,,,,,,,,,,,,,,,,,,,,,,,,,0,16,16,16,1,Objects,spoon,Stimuli/Objects/spoon/xsaltspoon6.jpg,,,,,,,,,,,,,,,,,,,,,,,,,,,,,,,,,,,,,,,,,,,,,,,,,,,,,,,,,,,,,,,,,,,,,,,,,,,,,
,,,,,,,,5e18552a51c080000e5d59ec,20,M,R,2020-09-09_10h38.40.132,Hybrid_Search_Task,2020.2.3,Win32,60,,,,,,,,,,,,,,,,,,,,,,,,,,,,,,,,,,,,,,,,,,,,,,,,,,,,,,,,,,,,,,,,,,,,,,,,,,,,,,,,,,,,,,,,0,12,12,29,1,StimList/spoon.xls,,,,,,,,,,,,,,,,,,,,,,,,,,,,,,,,,,,,,,,,,,,,,,,,,,,,,,,,,,,,,,,,,,,,,,,
,,,,,,,,5e18552a51c080000e5d59ec,20,M,R,2020-09-09_10h38.40.132,Hybrid_Search_Task,2020.2.3,Win32,60,,,,,,,,,,,,,,,,,,,,,,,,,,,,,,,,,,,,,,,,,,,,,,,,,,,,,,,,,,,,,,,,,,,,,,,,,,,,,,,,0,0,0,15,1,Objects,boot,Stimuli/Objects/boot/tecnica_denise-boot_oker_ocra.jpg,,,,,,,,,,,,,,,,,,,,,,,,,,,,,,,,,,,,,,,,,,,,,,,,,,,,,,,,,,,,,,,,,,,,,,,,,,,,,
,,,,,,,,5e18552a51c080000e5d59ec,20,M,R,2020-09-09_10h38.40.132,Hybrid_Search_Task,2020.2.3,Win32,60,,,,,,,,,,,,,,,,,,,,,,,,,,,,,,,,,,,,,,,,,,,,,,,,,,,,,,,,,,,,,,,,,,,,,,,,,,,,,,,,0,1,1,1,1,Objects,boot,Stimuli/Objects/boot/15860784.thl.jpg,,,,,,,,,,,,,,,,,,,,,,,,,,,,,,,,,,,,,,,,,,,,,,,,,,,,,,,,,,,,,,,,,,,,,,,,,,,,,
,,,,,,,,5e18552a51c080000e5d59ec,20,M,R,2020-09-09_10h38.40.132,Hybrid_Search_Task,2020.2.3,Win32,60,,,,,,,,,,,,,,,,,,,,,,,,,,,,,,,,,,,,,,,,,,,,,,,,,,,,,,,,,,,,,,,,,,,,,,,,,,,,,,,,0,2,2,13,1,Objects,boot,Stimuli/Objects/boot/clothes_9.jpg,,,,,,,,,,,,,,,,,,,,,,,,,,,,,,,,,,,,,,,,,,,,,,,,,,,,,,,,,,,,,,,,,,,,,,,,,,,,,
,,,,,,,,5e18552a51c080000e5d59ec,20,M,R,2020-09-09_10h38.40.132,Hybrid_Search_Task,2020.2.3,Win32,60,,,,,,,,,,,,,,,,,,,,,,,,,,,,,,,,,,,,,,,,,,,,,,,,,,,,,,,,,,,,,,,,,,,,,,,,,,,,,,,,0,3,3,16,1,Objects,boot,Stimuli/Objects/boot/Women_s_Boot.jpg,,,,,,,,,,,,,,,,,,,,,,,,,,,,,,,,,,,,,,,,,,,,,,,,,,,,,,,,,,,,,,,,,,,,,,,,,,,,,
,,,,,,,,5e18552a51c080000e5d59ec,20,M,R,2020-09-09_10h38.40.132,Hybrid_Search_Task,2020.2.3,Win32,60,,,,,,,,,,,,,,,,,,,,,,,,,,,,,,,,,,,,,,,,,,,,,,,,,,,,,,,,,,,,,,,,,,,,,,,,,,,,,,,,0,4,4,5,1,Objects,boot,Stimuli/Objects/boot/35311865.thl.jpg,,,,,,,,,,,,,,,,,,,,,,,,,,,,,,,,,,,,,,,,,,,,,,,,,,,,,,,,,,,,,,,,,,,,,,,,,,,,,
,,,,,,,,5e18552a51c080000e5d59ec,20,M,R,2020-09-09_10h38.40.132,Hybrid_Search_Task,2020.2.3,Win32,60,,,,,,,,,,,,,,,,,,,,,,,,,,,,,,,,,,,,,,,,,,,,,,,,,,,,,,,,,,,,,,,,,,,,,,,,,,,,,,,,0,5,5,9,1,Objects,boot,Stimuli/Objects/boot/BOOT.jpg,,,,,,,,,,,,,,,,,,,,,,,,,,,,,,,,,,,,,,,,,,,,,,,,,,,,,,,,,,,,,,,,,,,,,,,,,,,,,
,,,,,,,,5e18552a51c080000e5d59ec,20,M,R,2020-09-09_10h38.40.132,Hybrid_Search_Task,2020.2.3,Win32,60,,,,,,,,,,,,,,,,,,,,,,,,,,,,,,,,,,,,,,,,,,,,,,,,,,,,,,,,,,,,,,,,,,,,,,,,,,,,,,,,0,6,6,6,1,Objects,boot,Stimuli/Objects/boot/ABOOTS26.jpg,,,,,,,,,,,,,,,,,,,,,,,,,,,,,,,,,,,,,,,,,,,,,,,,,,,,,,,,,,,,,,,,,,,,,,,,,,,,,
,,,,,,,,5e18552a51c080000e5d59ec,20,M,R,2020-09-09_10h38.40.132,Hybrid_Search_Task,2020.2.3,Win32,60,,,,,,,,,,,,,,,,,,,,,,,,,,,,,,,,,,,,,,,,,,,,,,,,,,,,,,,,,,,,,,,,,,,,,,,,,,,,,,,,0,7,7,12,1,Objects,boot,Stimuli/Objects/boot/clothes_8.jpg,,,,,,,,,,,,,,,,,,,,,,,,,,,,,,,,,,,,,,,,,,,,,,,,,,,,,,,,,,,,,,,,,,,,,,,,,,,,,
,,,,,,,,5e18552a51c080000e5d59ec,20,M,R,2020-09-09_10h38.40.132,Hybrid_Search_Task,2020.2.3,Win32,60,,,,,,,,,,,,,,,,,,,,,,,,,,,,,,,,,,,,,,,,,,,,,,,,,,,,,,,,,,,,,,,,,,,,,,,,,,,,,,,,0,8,8,7,1,Objects,boot,Stimuli/Objects/boot/ACABOOTS2.jpg,,,,,,,,,,,,,,,,,,,,,,,,,,,,,,,,,,,,,,,,,,,,,,,,,,,,,,,,,,,,,,,,,,,,,,,,,,,,,
,,,,,,,,5e18552a51c080000e5d59ec,20,M,R,2020-09-09_10h38.40.132,Hybrid_Search_Task,2020.2.3,Win32,60,,,,,,,,,,,,,,,,,,,,,,,,,,,,,,,,,,,,,,,,,,,,,,,,,,,,,,,,,,,,,,,,,,,,,,,,,,,,,,,,0,9,9,11,1,Objects,boot,Stimuli/Objects/boot/clothes_7.jpg,,,,,,,,,,,,,,,,,,,,,,,,,,,,,,,,,,,,,,,,,,,,,,,,,,,,,,,,,,,,,,,,,,,,,,,,,,,,,
,,,,,,,,5e18552a51c080000e5d59ec,20,M,R,2020-09-09_10h38.40.132,Hybrid_Search_Task,2020.2.3,Win32,60,,,,,,,,,,,,,,,,,,,,,,,,,,,,,,,,,,,,,,,,,,,,,,,,,,,,,,,,,,,,,,,,,,,,,,,,,,,,,,,,0,10,10,3,1,Objects,boot,Stimuli/Objects/boot/26424364.thl.jpg,,,,,,,,,,,,,,,,,,,,,,,,,,,,,,,,,,,,,,,,,,,,,,,,,,,,,,,,,,,,,,,,,,,,,,,,,,,,,
,,,,,,,,5e18552a51c080000e5d59ec,20,M,R,2020-09-09_10h38.40.132,Hybrid_Search_Task,2020.2.3,Win32,60,,,,,,,,,,,,,,,,,,,,,,,,,,,,,,,,,,,,,,,,,,,,,,,,,,,,,,,,,,,,,,,,,,,,,,,,,,,,,,,,0,11,11,2,1,Objects,boot,Stimuli/Objects/boot/22978099.thl.jpg,,,,,,,,,,,,,,,,,,,,,,,,,,,,,,,,,,,,,,,,,,,,,,,,,,,,,,,,,,,,,,,,,,,,,,,,,,,,,
,,,,,,,,5e18552a51c080000e5d59ec,20,M,R,2020-09-09_10h38.40.132,Hybrid_Search_Task,2020.2.3,Win32,60,,,,,,,,,,,,,,,,,,,,,,,,,,,,,,,,,,,,,,,,,,,,,,,,,,,,,,,,,,,,,,,,,,,,,,,,,,,,,,,,0,12,12,8,1,Objects,boot,Stimuli/Objects/boot/ARUBBOOT8.jpg,,,,,,,,,,,,,,,,,,,,,,,,,,,,,,,,,,,,,,,,,,,,,,,,,,,,,,,,,,,,,,,,,,,,,,,,,,,,,
,,,,,,,,5e18552a51c080000e5d59ec,20,M,R,2020-09-09_10h38.40.132,Hybrid_Search_Task,2020.2.3,Win32,60,,,,,,,,,,,,,,,,,,,,,,,,,,,,,,,,,,,,,,,,,,,,,,,,,,,,,,,,,,,,,,,,,,,,,,,,,,,,,,,,0,13,13,0,1,Objects,boot,Stimuli/Objects/boot/15860736.thl.jpg,,,,,,,,,,,,,,,,,,,,,,,,,,,,,,,,,,,,,,,,,,,,,,,,,,,,,,,,,,,,,,,,,,,,,,,,,,,,,
,,,,,,,,5e18552a51c080000e5d59ec,20,M,R,2020-09-09_10h38.40.132,Hybrid_Search_Task,2020.2.3,Win32,60,,,,,,,,,,,,,,,,,,,,,,,,,,,,,,,,,,,,,,,,,,,,,,,,,,,,,,,,,,,,,,,,,,,,,,,,,,,,,,,,0,14,14,10,1,Objects,boot,Stimuli/Objects/boot/british_army_surplus_jungle_boot_300.jpg,,,,,,,,,,,,,,,,,,,,,,,,,,,,,,,,,,,,,,,,,,,,,,,,,,,,,,,,,,,,,,,,,,,,,,,,,,,,,
,,,,,,,,5e18552a51c080000e5d59ec,20,M,R,2020-09-09_10h38.40.132,Hybrid_Search_Task,2020.2.3,Win32,60,,,,,,,,,,,,,,,,,,,,,,,,,,,,,,,,,,,,,,,,,,,,,,,,,,,,,,,,,,,,,,,,,,,,,,,,,,,,,,,,0,15,15,14,1,Objects,boot,Stimuli/Objects/boot/jungle_boot.jpg,,,,,,,,,,,,,,,,,,,,,,,,,,,,,,,,,,,,,,,,,,,,,,,,,,,,,,,,,,,,,,,,,,,,,,,,,,,,,
,,,,,,,,5e18552a51c080000e5d59ec,20,M,R,2020-09-09_10h38.40.132,Hybrid_Search_Task,2020.2.3,Win32,60,,,,,,,,,,,,,,,,,,,,,,,,,,,,,,,,,,,,,,,,,,,,,,,,,,,,,,,,,,,,,,,,,,,,,,,,,,,,,,,,0,16,16,4,1,Objects,boot,Stimuli/Objects/boot/34936580.thl.jpg,,,,,,,,,,,,,,,,,,,,,,,,,,,,,,,,,,,,,,,,,,,,,,,,,,,,,,,,,,,,,,,,,,,,,,,,,,,,,
,,,,,,,,5e18552a51c080000e5d59ec,20,M,R,2020-09-09_10h38.40.132,Hybrid_Search_Task,2020.2.3,Win32,60,,,,,,,,,,,,,,,,,,,,,,,,,,,,,,,,,,,,,,,,,,,,,,,,,,,,,,,,,,,,,,,,,,,,,,,,,,,,,,,,,,,,,,,,0,13,13,6,1,StimList/boot.xls,,,,,,,,,,,,,,,,,,,,,,,,,,,,,,,,,,,,,,,,,,,,,,,,,,,,,,,,,,,,,,,,,,,,,,,
,,,,,,,,5e18552a51c080000e5d59ec,20,M,R,2020-09-09_10h38.40.132,Hybrid_Search_Task,2020.2.3,Win32,60,,,,,,,,,,,,,,,,,,,,,,,,,,,,,,,,,,,,,,,,,,,,,,,,,,,,,,,,,,,,,,,,,,,,,,,,,,,,,,,,0,0,0,10,1,Objects,makeupcompact,Stimuli/Objects/makeupcompact/P181006_hero.jpg,,,,,,,,,,,,,,,,,,,,,,,,,,,,,,,,,,,,,,,,,,,,,,,,,,,,,,,,,,,,,,,,,,,,,,,,,,,,,
,,,,,,,,5e18552a51c080000e5d59ec,20,M,R,2020-09-09_10h38.40.132,Hybrid_Search_Task,2020.2.3,Win32,60,,,,,,,,,,,,,,,,,,,,,,,,,,,,,,,,,,,,,,,,,,,,,,,,,,,,,,,,,,,,,,,,,,,,,,,,,,,,,,,,0,1,1,0,1,Objects,makeupcompact,Stimuli/Objects/makeupcompact/05086681402.jpg,,,,,,,,,,,,,,,,,,,,,,,,,,,,,,,,,,,,,,,,,,,,,,,,,,,,,,,,,,,,,,,,,,,,,,,,,,,,,
,,,,,,,,5e18552a51c080000e5d59ec,20,M,R,2020-09-09_10h38.40.132,Hybrid_Search_Task,2020.2.3,Win32,60,,,,,,,,,,,,,,,,,,,,,,,,,,,,,,,,,,,,,,,,,,,,,,,,,,,,,,,,,,,,,,,,,,,,,,,,,,,,,,,,0,2,2,9,1,Objects,makeupcompact,Stimuli/Objects/makeupcompact/P139103_hero.jpg,,,,,,,,,,,,,,,,,,,,,,,,,,,,,,,,,,,,,,,,,,,,,,,,,,,,,,,,,,,,,,,,,,,,,,,,,,,,,
