instrResp1.keys,instrResp1.rt,instr1_loop.thisRepN,instr1_loop.thisTrialN,instr1_loop.thisN,instr1_loop.thisIndex,instr1_loop.ran,instrOrd1,participant,age,gender,handedness,date,expName,psychopyVersion,OS,frameRate,instrResp5.keys,instrResp5.rt,instrResp6.keys,instrResp6.rt,instrResp3.keys,instrResp3.rt,instr2_loop.thisRepN,instr2_loop.thisTrialN,instr2_loop.thisN,instr2_loop.thisIndex,instr2_loop.ran,instrOrd2,instrEGresp.keys,instrEGresp.rt,instrHint2Resp.keys,instrHint2Resp.rt,instrRespSCH.keys,instr3_loop.thisRepN,instr3_loop.thisTrialN,instr3_loop.thisN,instr3_loop.thisIndex,instr3_loop.ran,instrOrd3,instrHint3Resp.keys,instrHint3Resp.rt,instrResp10.keys,instrResp10.rt,pStudy_loop.thisRepN,pStudy_loop.thisTrialN,pStudy_loop.thisN,pStudy_loop.thisIndex,pStudy_loop.ran,pTarg,psPresen_loop.thisRepN,psPresen_loop.thisTrialN,psPresen_loop.thisN,psPresen_loop.thisIndex,psPresen_loop.ran,ptHint_loop.thisRepN,ptHint_loop.thisTrialN,ptHint_loop.thisN,ptHint_loop.thisIndex,ptHint_loop.ran,pTestResp.keys,pTestResp.corr,pTestResp.rt,pTest_loop.thisRepN,pTest_loop.thisTrialN,pTest_loop.thisN,pTest_loop.thisIndex,pTest_loop.ran,ptStim,pCorAns,pTBR_loop.thisRepN,pTBR_loop.thisTrialN,pTBR_loop.thisN,pTBR_loop.thisIndex,pTBR_loop.ran,psResp.keys,psResp.corr,pSearch_loop.thisRepN,pSearch_loop.thisTrialN,pSearch_loop.thisN,pSearch_loop.thisIndex,pSearch_loop.ran,pStim,psResp.rt,practice_loop.thisRepN,practice_loop.thisTrialN,practice_loop.thisN,practice_loop.thisIndex,practice_loop.ran,pStudyOrd,pTest1,pTest2,pTest3,pSearch,expStaResp.keys,expStaResp.rt,stim17_loop.thisRepN,stim17_loop.thisTrialN,stim17_loop.thisN,stim17_loop.thisIndex,stim17_loop.ran,cate,subCate,stimulus,sub30_loop.thisRepN,sub30_loop.thisTrialN,sub30_loop.thisN,sub30_loop.thisIndex,sub30_loop.ran,stimSubCate,altDistrStim_loop.thisRepN,altDistrStim_loop.thisTrialN,altDistrStim_loop.thisN,altDistrStim_loop.thisIndex,altDistrStim_loop.ran,distr_loop.thisRepN,distr_loop.thisTrialN,distr_loop.thisN,distr_loop.thisIndex,distr_loop.ran,chooseDistr_loop.thisRepN,chooseDistr_loop.thisTrialN,chooseDistr_loop.thisN,chooseDistr_loop.thisIndex,chooseDistr_loop.ran,distrIndx,study_loop.thisRepN,study_loop.thisTrialN,study_loop.thisN,study_loop.thisIndex,study_loop.ran,study_presen.thisRepN,study_presen.thisTrialN,study_presen.thisN,study_presen.thisIndex,study_presen.ran,testHint_presen.thisRepN,testHint_presen.thisTrialN,testHint_presen.thisN,testHint_presen.thisIndex,testHint_presen.ran,testResp.keys,testResp.corr,testResp.rt,testsize,condTest,test_loop.thisRepN,test_loop.thisTrialN,test_loop.thisN,test_loop.thisIndex,test_loop.ran,testIndx,TBR_loop.thisRepN,TBR_loop.thisTrialN,TBR_loop.thisN,TBR_loop.thisIndex,TBR_loop.ran,schResp.keys,schResp.corr,setsize,subCategory,category,cond,stimImg,sch_loop.thisRepN,sch_loop.thisTrialN,sch_loop.thisN,sch_loop.thisIndex,sch_loop.ran,trialIndx,schResp.rt,brkResp.keys,brkResp.rt,blockOrd.thisRepN,blockOrd.thisTrialN,blockOrd.thisN,blockOrd.thisIndex,blockOrd.ran,stimCateList,stimCate,testOrd
space,15.07053,0,0,0,0,1,Instructions/instr1.png,5e459f9ae4317f085cc0af2d,26,M,R,2020-09-07_16h59.45.163,Hybrid_Search_Task,2020.2.3,Win32,60,,,,,,,,,,,,,,,,,,,,,,,,,,,,,,,,,,,,,,,,,,,,,,,,,,,,,,,,,,,,,,,,,,,,,,,,,,,,,,,,,,,,,,,,,,,,,,,,,,,,,,,,,,,,,,,,,,,,,,,,,,,,,,,,,,,,,,,,,,,,,,,,,,,,,,,,,,,,,,,,,,,,
space,6.84424,0,1,1,1,1,Instructions/instr2.png,5e459f9ae4317f085cc0af2d,26,M,R,2020-09-07_16h59.45.163,Hybrid_Search_Task,2020.2.3,Win32,60,,,,,,,,,,,,,,,,,,,,,,,,,,,,,,,,,,,,,,,,,,,,,,,,,,,,,,,,,,,,,,,,,,,,,,,,,,,,,,,,,,,,,,,,,,,,,,,,,,,,,,,,,,,,,,,,,,,,,,,,,,,,,,,,,,,,,,,,,,,,,,,,,,,,,,,,,,,,,,,,,,,,
space,6.85523,0,2,2,2,1,Instructions/instr3.png,5e459f9ae4317f085cc0af2d,26,M,R,2020-09-07_16h59.45.163,Hybrid_Search_Task,2020.2.3,Win32,60,,,,,,,,,,,,,,,,,,,,,,,,,,,,,,,,,,,,,,,,,,,,,,,,,,,,,,,,,,,,,,,,,,,,,,,,,,,,,,,,,,,,,,,,,,,,,,,,,,,,,,,,,,,,,,,,,,,,,,,,,,,,,,,,,,,,,,,,,,,,,,,,,,,,,,,,,,,,,,,,,,,,
space,13.157395,0,3,3,3,1,Instructions/instr4.png,5e459f9ae4317f085cc0af2d,26,M,R,2020-09-07_16h59.45.163,Hybrid_Search_Task,2020.2.3,Win32,60,,,,,,,,,,,,,,,,,,,,,,,,,,,,,,,,,,,,,,,,,,,,,,,,,,,,,,,,,,,,,,,,,,,,,,,,,,,,,,,,,,,,,,,,,,,,,,,,,,,,,,,,,,,,,,,,,,,,,,,,,,,,,,,,,,,,,,,,,,,,,,,,,,,,,,,,,,,,,,,,,,,,
,,,,,,,,5e459f9ae4317f085cc0af2d,26,M,R,2020-09-07_16h59.45.163,Hybrid_Search_Task,2020.2.3,Win32,60,z,16.026345,m,3.630645,space,1.25497,0,0,0,0,1,Instructions/instr7.png,,,,,,,,,,,,,,,,,,,,,,,,,,,,,,,,,,,,,,,,,,,,,,,,,,,,,,,,,,,,,,,,,,,,,,,,,,,,,,,,,,,,,,,,,,,,,,,,,,,,,,,,,,,,,,,,,,,,,,,,,,,,,,,,,,,,,,,,,,,,,,,,,,,,,,,,
,,,,,,,,5e459f9ae4317f085cc0af2d,26,M,R,2020-09-07_16h59.45.163,Hybrid_Search_Task,2020.2.3,Win32,60,,,,,space,2.671165,0,1,1,1,1,Instructions/instr8.png,,,,,,,,,,,,,,,,,,,,,,,,,,,,,,,,,,,,,,,,,,,,,,,,,,,,,,,,,,,,,,,,,,,,,,,,,,,,,,,,,,,,,,,,,,,,,,,,,,,,,,,,,,,,,,,,,,,,,,,,,,,,,,,,,,,,,,,,,,,,,,,,,,,,,,,,
,,,,,,,,5e459f9ae4317f085cc0af2d,26,M,R,2020-09-07_16h59.45.163,Hybrid_Search_Task,2020.2.3,Win32,60,,,,,space,4.45498,0,2,2,2,1,Instructions/instr9.png,,,,,,,,,,,,,,,,,,,,,,,,,,,,,,,,,,,,,,,,,,,,,,,,,,,,,,,,,,,,,,,,,,,,,,,,,,,,,,,,,,,,,,,,,,,,,,,,,,,,,,,,,,,,,,,,,,,,,,,,,,,,,,,,,,,,,,,,,,,,,,,,,,,,,,,,
,,,,,,,,5e459f9ae4317f085cc0af2d,26,M,R,2020-09-07_16h59.45.163,Hybrid_Search_Task,2020.2.3,Win32,60,,,,,,,,,,,,,m,2.10395,space,3.57871,,0,0,0,1,1,Instructions/s3.jpg,,,,,,,,,,,,,,,,,,,,,,,,,,,,,,,,,,,,,,,,,,,,,,,,,,,,,,,,,,,,,,,,,,,,,,,,,,,,,,,,,,,,,,,,,,,,,,,,,,,,,,,,,,,,,,,,,,,,,,,,,,,,,,,,,,,,,,,,,,,,,
,,,,,,,,5e459f9ae4317f085cc0af2d,26,M,R,2020-09-07_16h59.45.163,Hybrid_Search_Task,2020.2.3,Win32,60,,,,,,,,,,,,,,,,,,0,1,1,0,1,Instructions/s2.jpg,,,,,,,,,,,,,,,,,,,,,,,,,,,,,,,,,,,,,,,,,,,,,,,,,,,,,,,,,,,,,,,,,,,,,,,,,,,,,,,,,,,,,,,,,,,,,,,,,,,,,,,,,,,,,,,,,,,,,,,,,,,,,,,,,,,,,,,,,,,,,
,,,,,,,,5e459f9ae4317f085cc0af2d,26,M,R,2020-09-07_16h59.45.163,Hybrid_Search_Task,2020.2.3,Win32,60,,,,,,,,,,,,,,,,,,,,,,,,space,23.34011,space,6.00277,0,0,0,1,1,Practice/PracTarg/02.jpg,,,,,,,,,,,,,,,,,,,,,,,,,,,,,,,,,,,,,,,,,,,,,,,,,,,,,,,,,,,,,,,,,,,,,,,,,,,,,,,,,,,,,,,,,,,,,,,,,,,,,,,,,,,,,,,,,,,,,,,,,,,,,,,,,,,
,,,,,,,,5e459f9ae4317f085cc0af2d,26,M,R,2020-09-07_16h59.45.163,Hybrid_Search_Task,2020.2.3,Win32,60,,,,,,,,,,,,,,,,,,,,,,,,,,,,0,1,1,0,1,Practice/PracTarg/01.jpg,,,,,,,,,,,,,,,,,,,,,,,,,,,,,,,,,,,,,,,,,,,,,,,,,,,,,,,,,,,,,,,,,,,,,,,,,,,,,,,,,,,,,,,,,,,,,,,,,,,,,,,,,,,,,,,,,,,,,,,,,,,,,,,,,,,
,,,,,,,,5e459f9ae4317f085cc0af2d,26,M,R,2020-09-07_16h59.45.163,Hybrid_Search_Task,2020.2.3,Win32,60,,,,,,,,,,,,,,,,,,,,,,,,,,,,,,,,,,0,0,0,0,1,,,,,,,,,,,,,,,,,,,,,,,,,,,,,,,,,,,,,,,,,,,,,,,,,,,,,,,,,,,,,,,,,,,,,,,,,,,,,,,,,,,,,,,,,,,,,,,,,,,,,,,,,,,,,,,,,,,,,,,,,,,,,,
,,,,,,,,5e459f9ae4317f085cc0af2d,26,M,R,2020-09-07_16h59.45.163,Hybrid_Search_Task,2020.2.3,Win32,60,,,,,,,,,,,,,,,,,,,,,,,,,,,,,,,,,,,,,,,0,0,0,0,1,,,,,,,,,,,,,,,,,,,,,,,,,,,,,,,,,,,,,,,,,,,,,,,,,,,,,,,,,,,,,,,,,,,,,,,,,,,,,,,,,,,,,,,,,,,,,,,,,,,,,,,,,,,,,,,,,,,,,,,,,
,,,,,,,,5e459f9ae4317f085cc0af2d,26,M,R,2020-09-07_16h59.45.163,Hybrid_Search_Task,2020.2.3,Win32,60,,,,,,,,,,,,,,,,,,,,,,,,,,,,,,,,,,,,,,,,,,,,z,1,2.16647,0,0,0,0,1,Practice/PracTarg/01.jpg,z,,,,,,,,,,,,,,,,,,,,,,,,,,,,,,,,,,,,,,,,,,,,,,,,,,,,,,,,,,,,,,,,,,,,,,,,,,,,,,,,,,,,,,,,,,,,,,,,,,,,,,,,,,,,,,,
,,,,,,,,5e459f9ae4317f085cc0af2d,26,M,R,2020-09-07_16h59.45.163,Hybrid_Search_Task,2020.2.3,Win32,60,,,,,,,,,,,,,,,,,,,,,,,,,,,,,,,,,,,,,,,,,,,,m,1,0.84325,0,1,1,2,1,Practice/PracTest/01_1.jpg,m,,,,,,,,,,,,,,,,,,,,,,,,,,,,,,,,,,,,,,,,,,,,,,,,,,,,,,,,,,,,,,,,,,,,,,,,,,,,,,,,,,,,,,,,,,,,,,,,,,,,,,,,,,,,,,,
,,,,,,,,5e459f9ae4317f085cc0af2d,26,M,R,2020-09-07_16h59.45.163,Hybrid_Search_Task,2020.2.3,Win32,60,,,,,,,,,,,,,,,,,,,,,,,,,,,,,,,,,,,,,,,,,,,,m,1,1.248605,0,2,2,3,1,Practice/PracTest/02_1.jpg,m,,,,,,,,,,,,,,,,,,,,,,,,,,,,,,,,,,,,,,,,,,,,,,,,,,,,,,,,,,,,,,,,,,,,,,,,,,,,,,,,,,,,,,,,,,,,,,,,,,,,,,,,,,,,,,,
,,,,,,,,5e459f9ae4317f085cc0af2d,26,M,R,2020-09-07_16h59.45.163,Hybrid_Search_Task,2020.2.3,Win32,60,,,,,,,,,,,,,,,,,,,,,,,,,,,,,,,,,,,,,,,,,,,,z,1,0.724715,0,3,3,1,1,Practice/PracTarg/02.jpg,z,,,,,,,,,,,,,,,,,,,,,,,,,,,,,,,,,,,,,,,,,,,,,,,,,,,,,,,,,,,,,,,,,,,,,,,,,,,,,,,,,,,,,,,,,,,,,,,,,,,,,,,,,,,,,,,
,,,,,,,,5e459f9ae4317f085cc0af2d,26,M,R,2020-09-07_16h59.45.163,Hybrid_Search_Task,2020.2.3,Win32,60,,,,,,,,,,,,,,,,,,,,,,,,,,,,,,,,,,,,,,,,,,,,,,,,,,,,,,0,0,0,0,1,,,,,,,,,,,,,,,,,,,,,,,,,,,,,,,,,,,,,,,,,,,,,,,,,,,,,,,,,,,,,,,,,,,,,,,,,,,,,,,,,,,,,,,,,,,,,,,,,,,,,,,,,,
,,,,,,,,5e459f9ae4317f085cc0af2d,26,M,R,2020-09-07_16h59.45.163,Hybrid_Search_Task,2020.2.3,Win32,60,,,,,,,,,,,,,,,,,,,,,,,,,,,,,,,,,,,,,,,0,0,0,0,1,,,,,,,,,,,,,,,,,,,,,,,,,,,,,,,,,,,,,,,,,,,,,,,,,,,,,,,,,,,,,,,,,,,,,,,,,,,,,,,,,,,,,,,,,,,,,,,,,,,,,,,,,,,,,,,,,,,,,,,,,
,,,,,,,,5e459f9ae4317f085cc0af2d,26,M,R,2020-09-07_16h59.45.163,Hybrid_Search_Task,2020.2.3,Win32,60,,,,,,,,,,,,,,,,,,,,,,,,,,,,,,,,,,,,,,,,,,,,m,1,5.01476,0,0,0,2,1,Practice/PracTest/01_2.jpg,m,,,,,,,,,,,,,,,,,,,,,,,,,,,,,,,,,,,,,,,,,,,,,,,,,,,,,,,,,,,,,,,,,,,,,,,,,,,,,,,,,,,,,,,,,,,,,,,,,,,,,,,,,,,,,,,
,,,,,,,,5e459f9ae4317f085cc0af2d,26,M,R,2020-09-07_16h59.45.163,Hybrid_Search_Task,2020.2.3,Win32,60,,,,,,,,,,,,,,,,,,,,,,,,,,,,,,,,,,,,,,,,,,,,m,1,0.63698,0,1,1,3,1,Practice/PracTest/02_2.jpg,m,,,,,,,,,,,,,,,,,,,,,,,,,,,,,,,,,,,,,,,,,,,,,,,,,,,,,,,,,,,,,,,,,,,,,,,,,,,,,,,,,,,,,,,,,,,,,,,,,,,,,,,,,,,,,,,
,,,,,,,,5e459f9ae4317f085cc0af2d,26,M,R,2020-09-07_16h59.45.163,Hybrid_Search_Task,2020.2.3,Win32,60,,,,,,,,,,,,,,,,,,,,,,,,,,,,,,,,,,,,,,,,,,,,z,1,0.576475,0,2,2,0,1,Practice/PracTarg/01.jpg,z,,,,,,,,,,,,,,,,,,,,,,,,,,,,,,,,,,,,,,,,,,,,,,,,,,,,,,,,,,,,,,,,,,,,,,,,,,,,,,,,,,,,,,,,,,,,,,,,,,,,,,,,,,,,,,,
,,,,,,,,5e459f9ae4317f085cc0af2d,26,M,R,2020-09-07_16h59.45.163,Hybrid_Search_Task,2020.2.3,Win32,60,,,,,,,,,,,,,,,,,,,,,,,,,,,,,,,,,,,,,,,,,,,,z,1,0.772195,0,3,3,1,1,Practice/PracTarg/02.jpg,z,,,,,,,,,,,,,,,,,,,,,,,,,,,,,,,,,,,,,,,,,,,,,,,,,,,,,,,,,,,,,,,,,,,,,,,,,,,,,,,,,,,,,,,,,,,,,,,,,,,,,,,,,,,,,,,
,,,,,,,,5e459f9ae4317f085cc0af2d,26,M,R,2020-09-07_16h59.45.163,Hybrid_Search_Task,2020.2.3,Win32,60,,,,,,,,,,,,,,,,,,,,,,,,,,,,,,,,,,,,,,,,,,,,,,,,,,,,,,1,0,1,0,1,,,,,,,,,,,,,,,,,,,,,,,,,,,,,,,,,,,,,,,,,,,,,,,,,,,,,,,,,,,,,,,,,,,,,,,,,,,,,,,,,,,,,,,,,,,,,,,,,,,,,,,,,,
,,,,,,,,5e459f9ae4317f085cc0af2d,26,M,R,2020-09-07_16h59.45.163,Hybrid_Search_Task,2020.2.3,Win32,60,,,,,,,,,,,,,,,,,,,,,,,,,,,,,,,,,,,,,,,,,,,,,,,,,,,,,,2,0,2,0,1,,,,,,,,,,,,,,,,,,,,,,,,,,,,,,,,,,,,,,,,,,,,,,,,,,,,,,,,,,,,,,,,,,,,,,,,,,,,,,,,,,,,,,,,,,,,,,,,,,,,,,,,,,
,,,,,,,,5e459f9ae4317f085cc0af2d,26,M,R,2020-09-07_16h59.45.163,Hybrid_Search_Task,2020.2.3,Win32,60,,,,,,,,,,,,,,,,,,,,,,,,,,,,,,,,,,,,,,,,,,,,,,,,,,,,,,3,0,3,0,1,,,,,,,,,,,,,,,,,,,,,,,,,,,,,,,,,,,,,,,,,,,,,,,,,,,,,,,,,,,,,,,,,,,,,,,,,,,,,,,,,,,,,,,,,,,,,,,,,,,,,,,,,,
,,,,,,,,5e459f9ae4317f085cc0af2d,26,M,R,2020-09-07_16h59.45.163,Hybrid_Search_Task,2020.2.3,Win32,60,,,,,,,,,,,,,,,,,,,,,,,,,,,,,,,,,,,,,,,,,,,,,,,,,,,,,,4,0,4,0,1,,,,,,,,,,,,,,,,,,,,,,,,,,,,,,,,,,,,,,,,,,,,,,,,,,,,,,,,,,,,,,,,,,,,,,,,,,,,,,,,,,,,,,,,,,,,,,,,,,,,,,,,,,
,,,,,,,,5e459f9ae4317f085cc0af2d,26,M,R,2020-09-07_16h59.45.163,Hybrid_Search_Task,2020.2.3,Win32,60,,,,,,,,,,,,,,,,,,,,,,,,,,,,,,,,,,,,,,,,,,,,,,,,,,,,,m,,,,,,,0,0,0,0,10,1,Practice/PracSearch/3_1.jpg,,,,,,,,,,,,,,,,,,,,,,,,,,,,,,,,,,,,,,,,,,,,,,,,,,,,,,,,,,,,,,,,,,,,,,,,,,,,,,,,,,,,,,,,,,,,,,,,,,
,,,,,,,,5e459f9ae4317f085cc0af2d,26,M,R,2020-09-07_16h59.45.163,Hybrid_Search_Task,2020.2.3,Win32,60,,,,,,,,,,,,,,,,,,,,,,,,,,,,,,,,,,,,,,,,,,,,,,,,,,,,,m,,,,,,,0,0,1,1,18,1,Practice/PracSearch/12_1.jpg,,,,,,,,,,,,,,,,,,,,,,,,,,,,,,,,,,,,,,,,,,,,,,,,,,,,,,,,,,,,,,,,,,,,,,,,,,,,,,,,,,,,,,,,,,,,,,,,,,
,,,,,,,,5e459f9ae4317f085cc0af2d,26,M,R,2020-09-07_16h59.45.163,Hybrid_Search_Task,2020.2.3,Win32,60,,,,,,,,,,,,,,,,,,,,,,,,,,,,,,,,,,,,,,,,,,,,,,,,,,,,,z,,,,,,,0,0,2,2,2,1,Practice/PracTarg/01.jpg,,,,,,,,,,,,,,,,,,,,,,,,,,,,,,,,,,,,,,,,,,,,,,,,,,,,,,,,,,,,,,,,,,,,,,,,,,,,,,,,,,,,,,,,,,,,,,,,,,
,,,,,,,,5e459f9ae4317f085cc0af2d,26,M,R,2020-09-07_16h59.45.163,Hybrid_Search_Task,2020.2.3,Win32,60,,,,,,,,,,,,,,,,,,,,,,,,,,,,,,,,,,,,,,,,,,,,,,,,,,,,,m,,,,,,,0,0,3,3,7,1,Practice/PracSearch/2_1.jpg,,,,,,,,,,,,,,,,,,,,,,,,,,,,,,,,,,,,,,,,,,,,,,,,,,,,,,,,,,,,,,,,,,,,,,,,,,,,,,,,,,,,,,,,,,,,,,,,,,
,,,,,,,,5e459f9ae4317f085cc0af2d,26,M,R,2020-09-07_16h59.45.163,Hybrid_Search_Task,2020.2.3,Win32,60,,,,,,,,,,,,,,,,,,,,,,,,,,,,,,,,,,,,,,,,,,,,,,,,,,,,,m,,,,,,,0,0,4,4,4,1,Practice/PracSearch/1_1.jpg,,,,,,,,,,,,,,,,,,,,,,,,,,,,,,,,,,,,,,,,,,,,,,,,,,,,,,,,,,,,,,,,,,,,,,,,,,,,,,,,,,,,,,,,,,,,,,,,,,
,,,,,,,,5e459f9ae4317f085cc0af2d,26,M,R,2020-09-07_16h59.45.163,Hybrid_Search_Task,2020.2.3,Win32,60,,,,,,,,,,,,,,,,,,,,,,,,,,,,,,,,,,,,,,,,,,,,,,,,,,,,,m,,,,,,,0,0,5,5,16,1,Practice/PracSearch/11_1.jpg,,,,,,,,,,,,,,,,,,,,,,,,,,,,,,,,,,,,,,,,,,,,,,,,,,,,,,,,,,,,,,,,,,,,,,,,,,,,,,,,,,,,,,,,,,,,,,,,,,
,,,,,,,,5e459f9ae4317f085cc0af2d,26,M,R,2020-09-07_16h59.45.163,Hybrid_Search_Task,2020.2.3,Win32,60,,,,,,,,,,,,,,,,,,,,,,,,,,,,,,,,,,,,,,,,,,,,,,,,,,,,,m,,,,,,,0,0,6,6,5,1,Practice/PracSearch/1_2.jpg,,,,,,,,,,,,,,,,,,,,,,,,,,,,,,,,,,,,,,,,,,,,,,,,,,,,,,,,,,,,,,,,,,,,,,,,,,,,,,,,,,,,,,,,,,,,,,,,,,
,,,,,,,,5e459f9ae4317f085cc0af2d,26,M,R,2020-09-07_16h59.45.163,Hybrid_Search_Task,2020.2.3,Win32,60,,,,,,,,,,,,,,,,,,,,,,,,,,,,,,,,,,,,,,,,,,,,,,,,,,,,,m,,,,,,,0,0,7,7,8,1,Practice/PracSearch/2_2.jpg,,,,,,,,,,,,,,,,,,,,,,,,,,,,,,,,,,,,,,,,,,,,,,,,,,,,,,,,,,,,,,,,,,,,,,,,,,,,,,,,,,,,,,,,,,,,,,,,,,
,,,,,,,,5e459f9ae4317f085cc0af2d,26,M,R,2020-09-07_16h59.45.163,Hybrid_Search_Task,2020.2.3,Win32,60,,,,,,,,,,,,,,,,,,,,,,,,,,,,,,,,,,,,,,,,,,,,,,,,,,,,,m,,,,,,,0,0,8,8,14,1,Practice/PracSearch/10_2.jpg,,,,,,,,,,,,,,,,,,,,,,,,,,,,,,,,,,,,,,,,,,,,,,,,,,,,,,,,,,,,,,,,,,,,,,,,,,,,,,,,,,,,,,,,,,,,,,,,,,
,,,,,,,,5e459f9ae4317f085cc0af2d,26,M,R,2020-09-07_16h59.45.163,Hybrid_Search_Task,2020.2.3,Win32,60,,,,,,,,,,,,,,,,,,,,,,,,,,,,,,,,,,,,,,,,,,,,,,,,,,,,,m,,,,,,,0,0,9,9,12,1,Practice/PracSearch/3_3.jpg,,,,,,,,,,,,,,,,,,,,,,,,,,,,,,,,,,,,,,,,,,,,,,,,,,,,,,,,,,,,,,,,,,,,,,,,,,,,,,,,,,,,,,,,,,,,,,,,,,
,,,,,,,,5e459f9ae4317f085cc0af2d,26,M,R,2020-09-07_16h59.45.163,Hybrid_Search_Task,2020.2.3,Win32,60,,,,,,,,,,,,,,,,,,,,,,,,,,,,,,,,,,,,,,,,,,,,,,,,,,,,,m,,,,,,,0,0,10,10,9,1,Practice/PracSearch/2_3.jpg,,,,,,,,,,,,,,,,,,,,,,,,,,,,,,,,,,,,,,,,,,,,,,,,,,,,,,,,,,,,,,,,,,,,,,,,,,,,,,,,,,,,,,,,,,,,,,,,,,
,,,,,,,,5e459f9ae4317f085cc0af2d,26,M,R,2020-09-07_16h59.45.163,Hybrid_Search_Task,2020.2.3,Win32,60,,,,,,,,,,,,,,,,,,,,,,,,,,,,,,,,,,,,,,,,,,,,,,,,,,,,,m,,,,,,,0,0,11,11,17,1,Practice/PracSearch/11_2.jpg,,,,,,,,,,,,,,,,,,,,,,,,,,,,,,,,,,,,,,,,,,,,,,,,,,,,,,,,,,,,,,,,,,,,,,,,,,,,,,,,,,,,,,,,,,,,,,,,,,
,,,,,,,,5e459f9ae4317f085cc0af2d,26,M,R,2020-09-07_16h59.45.163,Hybrid_Search_Task,2020.2.3,Win32,60,,,,,,,,,,,,,,,,,,,,,,,,,,,,,,,,,,,,,,,,,,,,,,,,,,,,,m,,,,,,,0,0,12,12,15,1,Practice/PracSearch/10_3.jpg,,,,,,,,,,,,,,,,,,,,,,,,,,,,,,,,,,,,,,,,,,,,,,,,,,,,,,,,,,,,,,,,,,,,,,,,,,,,,,,,,,,,,,,,,,,,,,,,,,
,,,,,,,,5e459f9ae4317f085cc0af2d,26,M,R,2020-09-07_16h59.45.163,Hybrid_Search_Task,2020.2.3,Win32,60,,,,,,,,,,,,,,,,,,,,,,,,,,,,,,,,,,,,,,,,,,,,,,,,,,,,,z,,,,,,,0,0,13,13,3,1,Practice/PracTarg/02.jpg,,,,,,,,,,,,,,,,,,,,,,,,,,,,,,,,,,,,,,,,,,,,,,,,,,,,,,,,,,,,,,,,,,,,,,,,,,,,,,,,,,,,,,,,,,,,,,,,,,
,,,,,,,,5e459f9ae4317f085cc0af2d,26,M,R,2020-09-07_16h59.45.163,Hybrid_Search_Task,2020.2.3,Win32,60,,,,,,,,,,,,,,,,,,,,,,,,,,,,,,,,,,,,,,,,,,,,,,,,,,,,,z,,,,,,,0,0,14,14,0,1,Practice/PracTarg/01.jpg,,,,,,,,,,,,,,,,,,,,,,,,,,,,,,,,,,,,,,,,,,,,,,,,,,,,,,,,,,,,,,,,,,,,,,,,,,,,,,,,,,,,,,,,,,,,,,,,,,
,,,,,,,,5e459f9ae4317f085cc0af2d,26,M,R,2020-09-07_16h59.45.163,Hybrid_Search_Task,2020.2.3,Win32,60,,,,,,,,,,,,,,,,,,,,,,,,,,,,,,,,,,,,,,,,,,,,,,,,,,,,,m,,,,,,,0,0,15,15,13,1,Practice/PracSearch/10_1.jpg,,,,,,,,,,,,,,,,,,,,,,,,,,,,,,,,,,,,,,,,,,,,,,,,,,,,,,,,,,,,,,,,,,,,,,,,,,,,,,,,,,,,,,,,,,,,,,,,,,
,,,,,,,,5e459f9ae4317f085cc0af2d,26,M,R,2020-09-07_16h59.45.163,Hybrid_Search_Task,2020.2.3,Win32,60,,,,,,,,,,,,,,,,,,,,,,,,,,,,,,,,,,,,,,,,,,,,,,,,,,,,,z,,,,,,z,1,0,16,16,1,1,Practice/PracTarg/02.jpg,0.301545,,,,,,,,,,,,,,,,,,,,,,,,,,,,,,,,,,,,,,,,,,,,,,,,,,,,,,,,,,,,,,,,,,,,,,,,,,,,,,,,,,,,,,,,,,,,,,,,,
,,,,,,,,5e459f9ae4317f085cc0af2d,26,M,R,2020-09-07_16h59.45.163,Hybrid_Search_Task,2020.2.3,Win32,60,,,,,,,,,,,,,,,,,,,,,,,,,,,,,,,,,,,,,,,,,,,,,,,,,,,,,m,,,,,,z,0,0,17,17,19,1,Practice/PracSearch/12_2.jpg,0.00119,,,,,,,,,,,,,,,,,,,,,,,,,,,,,,,,,,,,,,,,,,,,,,,,,,,,,,,,,,,,,,,,,,,,,,,,,,,,,,,,,,,,,,,,,,,,,,,,,
,,,,,,,,5e459f9ae4317f085cc0af2d,26,M,R,2020-09-07_16h59.45.163,Hybrid_Search_Task,2020.2.3,Win32,60,,,,,,,,,,,,,,,,,,,,,,,,,,,,,,,,,,,,,,,,,,,,,,,,,,,,,m,,,,,,m,1,0,18,18,6,1,Practice/PracSearch/1_3.jpg,0.201825,,,,,,,,,,,,,,,,,,,,,,,,,,,,,,,,,,,,,,,,,,,,,,,,,,,,,,,,,,,,,,,,,,,,,,,,,,,,,,,,,,,,,,,,,,,,,,,,,
,,,,,,,,5e459f9ae4317f085cc0af2d,26,M,R,2020-09-07_16h59.45.163,Hybrid_Search_Task,2020.2.3,Win32,60,,,,,,,,,,,,,,,,,,,,,,,,,,,,,,,,,,,,,,,,,,,,,,,,,,,,,m,,,,,,z,0,0,19,19,11,1,Practice/PracSearch/3_2.jpg,0.26254,,,,,,,,,,,,,,,,,,,,,,,,,,,,,,,,,,,,,,,,,,,,,,,,,,,,,,,,,,,,,,,,,,,,,,,,,,,,,,,,,,,,,,,,,,,,,,,,,
,,,,,,,,5e459f9ae4317f085cc0af2d,26,M,R,2020-09-07_16h59.45.163,Hybrid_Search_Task,2020.2.3,Win32,60,,,,,,,,,,,,,,,,,,,,,,,,,,,,,,,,,,,,,,,,,,,,,,,,,,,,,,,,,,,,,,,,,,,,0,0,0,0,1,Practice/pStudy2.xlsx,Practice/pTest2_1.xlsx,Practice/pTest2_2.xlsx,Practice/pTest2_3.xlsx,Practice/pSearch2.xlsx,,,,,,,,,,,,,,,,,,,,,,,,,,,,,,,,,,,,,,,,,,,,,,,,,,,,,,,,,,,,,,,,,,,,,,,,,,,,,,,,,,,,,,,
,,,,,,,,5e459f9ae4317f085cc0af2d,26,M,R,2020-09-07_16h59.45.163,Hybrid_Search_Task,2020.2.3,Win32,60,,,,,,,,,,,,,,,,,,,,,,,,,,,,,,,,,,,,,,,,,,,,,,,,,,,,,,,,,,,,,,,,,,,,,,,,,,,,,,space,1.612555,0,0,0,13,1,Animals,sheep_alpaca,Stimuli/Animals/sheep_alpaca/sheep_14.jpg,,,,,,,,,,,,,,,,,,,,,,,,,,,,,,,,,,,,,,,,,,,,,,,,,,,,,,,,,,,,,,,,,,,,,,,,,,,,,
,,,,,,,,5e459f9ae4317f085cc0af2d,26,M,R,2020-09-07_16h59.45.163,Hybrid_Search_Task,2020.2.3,Win32,60,,,,,,,,,,,,,,,,,,,,,,,,,,,,,,,,,,,,,,,,,,,,,,,,,,,,,,,,,,,,,,,,,,,,,,,,,,,,,,,,0,1,1,14,1,Animals,sheep_alpaca,Stimuli/Animals/sheep_alpaca/sheep_15.jpg,,,,,,,,,,,,,,,,,,,,,,,,,,,,,,,,,,,,,,,,,,,,,,,,,,,,,,,,,,,,,,,,,,,,,,,,,,,,,
,,,,,,,,5e459f9ae4317f085cc0af2d,26,M,R,2020-09-07_16h59.45.163,Hybrid_Search_Task,2020.2.3,Win32,60,,,,,,,,,,,,,,,,,,,,,,,,,,,,,,,,,,,,,,,,,,,,,,,,,,,,,,,,,,,,,,,,,,,,,,,,,,,,,,,,0,2,2,4,1,Animals,sheep_alpaca,Stimuli/Animals/sheep_alpaca/sheep_05.jpg,,,,,,,,,,,,,,,,,,,,,,,,,,,,,,,,,,,,,,,,,,,,,,,,,,,,,,,,,,,,,,,,,,,,,,,,,,,,,
,,,,,,,,5e459f9ae4317f085cc0af2d,26,M,R,2020-09-07_16h59.45.163,Hybrid_Search_Task,2020.2.3,Win32,60,,,,,,,,,,,,,,,,,,,,,,,,,,,,,,,,,,,,,,,,,,,,,,,,,,,,,,,,,,,,,,,,,,,,,,,,,,,,,,,,0,3,3,9,1,Animals,sheep_alpaca,Stimuli/Animals/sheep_alpaca/sheep_10.jpg,,,,,,,,,,,,,,,,,,,,,,,,,,,,,,,,,,,,,,,,,,,,,,,,,,,,,,,,,,,,,,,,,,,,,,,,,,,,,
,,,,,,,,5e459f9ae4317f085cc0af2d,26,M,R,2020-09-07_16h59.45.163,Hybrid_Search_Task,2020.2.3,Win32,60,,,,,,,,,,,,,,,,,,,,,,,,,,,,,,,,,,,,,,,,,,,,,,,,,,,,,,,,,,,,,,,,,,,,,,,,,,,,,,,,0,4,4,11,1,Animals,sheep_alpaca,Stimuli/Animals/sheep_alpaca/sheep_12.jpg,,,,,,,,,,,,,,,,,,,,,,,,,,,,,,,,,,,,,,,,,,,,,,,,,,,,,,,,,,,,,,,,,,,,,,,,,,,,,
,,,,,,,,5e459f9ae4317f085cc0af2d,26,M,R,2020-09-07_16h59.45.163,Hybrid_Search_Task,2020.2.3,Win32,60,,,,,,,,,,,,,,,,,,,,,,,,,,,,,,,,,,,,,,,,,,,,,,,,,,,,,,,,,,,,,,,,,,,,,,,,,,,,,,,,0,5,5,8,1,Animals,sheep_alpaca,Stimuli/Animals/sheep_alpaca/sheep_09.jpg,,,,,,,,,,,,,,,,,,,,,,,,,,,,,,,,,,,,,,,,,,,,,,,,,,,,,,,,,,,,,,,,,,,,,,,,,,,,,
,,,,,,,,5e459f9ae4317f085cc0af2d,26,M,R,2020-09-07_16h59.45.163,Hybrid_Search_Task,2020.2.3,Win32,60,,,,,,,,,,,,,,,,,,,,,,,,,,,,,,,,,,,,,,,,,,,,,,,,,,,,,,,,,,,,,,,,,,,,,,,,,,,,,,,,0,6,6,2,1,Animals,sheep_alpaca,Stimuli/Animals/sheep_alpaca/sheep_03.jpg,,,,,,,,,,,,,,,,,,,,,,,,,,,,,,,,,,,,,,,,,,,,,,,,,,,,,,,,,,,,,,,,,,,,,,,,,,,,,
,,,,,,,,5e459f9ae4317f085cc0af2d,26,M,R,2020-09-07_16h59.45.163,Hybrid_Search_Task,2020.2.3,Win32,60,,,,,,,,,,,,,,,,,,,,,,,,,,,,,,,,,,,,,,,,,,,,,,,,,,,,,,,,,,,,,,,,,,,,,,,,,,,,,,,,0,7,7,16,1,Animals,sheep_alpaca,Stimuli/Animals/sheep_alpaca/sheep_17.jpg,,,,,,,,,,,,,,,,,,,,,,,,,,,,,,,,,,,,,,,,,,,,,,,,,,,,,,,,,,,,,,,,,,,,,,,,,,,,,
,,,,,,,,5e459f9ae4317f085cc0af2d,26,M,R,2020-09-07_16h59.45.163,Hybrid_Search_Task,2020.2.3,Win32,60,,,,,,,,,,,,,,,,,,,,,,,,,,,,,,,,,,,,,,,,,,,,,,,,,,,,,,,,,,,,,,,,,,,,,,,,,,,,,,,,0,8,8,7,1,Animals,sheep_alpaca,Stimuli/Animals/sheep_alpaca/sheep_08.jpg,,,,,,,,,,,,,,,,,,,,,,,,,,,,,,,,,,,,,,,,,,,,,,,,,,,,,,,,,,,,,,,,,,,,,,,,,,,,,
,,,,,,,,5e459f9ae4317f085cc0af2d,26,M,R,2020-09-07_16h59.45.163,Hybrid_Search_Task,2020.2.3,Win32,60,,,,,,,,,,,,,,,,,,,,,,,,,,,,,,,,,,,,,,,,,,,,,,,,,,,,,,,,,,,,,,,,,,,,,,,,,,,,,,,,0,9,9,6,1,Animals,sheep_alpaca,Stimuli/Animals/sheep_alpaca/sheep_07.jpg,,,,,,,,,,,,,,,,,,,,,,,,,,,,,,,,,,,,,,,,,,,,,,,,,,,,,,,,,,,,,,,,,,,,,,,,,,,,,
,,,,,,,,5e459f9ae4317f085cc0af2d,26,M,R,2020-09-07_16h59.45.163,Hybrid_Search_Task,2020.2.3,Win32,60,,,,,,,,,,,,,,,,,,,,,,,,,,,,,,,,,,,,,,,,,,,,,,,,,,,,,,,,,,,,,,,,,,,,,,,,,,,,,,,,0,10,10,5,1,Animals,sheep_alpaca,Stimuli/Animals/sheep_alpaca/sheep_06.jpg,,,,,,,,,,,,,,,,,,,,,,,,,,,,,,,,,,,,,,,,,,,,,,,,,,,,,,,,,,,,,,,,,,,,,,,,,,,,,
,,,,,,,,5e459f9ae4317f085cc0af2d,26,M,R,2020-09-07_16h59.45.163,Hybrid_Search_Task,2020.2.3,Win32,60,,,,,,,,,,,,,,,,,,,,,,,,,,,,,,,,,,,,,,,,,,,,,,,,,,,,,,,,,,,,,,,,,,,,,,,,,,,,,,,,0,11,11,3,1,Animals,sheep_alpaca,Stimuli/Animals/sheep_alpaca/sheep_04.jpg,,,,,,,,,,,,,,,,,,,,,,,,,,,,,,,,,,,,,,,,,,,,,,,,,,,,,,,,,,,,,,,,,,,,,,,,,,,,,
,,,,,,,,5e459f9ae4317f085cc0af2d,26,M,R,2020-09-07_16h59.45.163,Hybrid_Search_Task,2020.2.3,Win32,60,,,,,,,,,,,,,,,,,,,,,,,,,,,,,,,,,,,,,,,,,,,,,,,,,,,,,,,,,,,,,,,,,,,,,,,,,,,,,,,,0,12,12,15,1,Animals,sheep_alpaca,Stimuli/Animals/sheep_alpaca/sheep_16.jpg,,,,,,,,,,,,,,,,,,,,,,,,,,,,,,,,,,,,,,,,,,,,,,,,,,,,,,,,,,,,,,,,,,,,,,,,,,,,,
,,,,,,,,5e459f9ae4317f085cc0af2d,26,M,R,2020-09-07_16h59.45.163,Hybrid_Search_Task,2020.2.3,Win32,60,,,,,,,,,,,,,,,,,,,,,,,,,,,,,,,,,,,,,,,,,,,,,,,,,,,,,,,,,,,,,,,,,,,,,,,,,,,,,,,,0,13,13,12,1,Animals,sheep_alpaca,Stimuli/Animals/sheep_alpaca/sheep_13.jpg,,,,,,,,,,,,,,,,,,,,,,,,,,,,,,,,,,,,,,,,,,,,,,,,,,,,,,,,,,,,,,,,,,,,,,,,,,,,,
,,,,,,,,5e459f9ae4317f085cc0af2d,26,M,R,2020-09-07_16h59.45.163,Hybrid_Search_Task,2020.2.3,Win32,60,,,,,,,,,,,,,,,,,,,,,,,,,,,,,,,,,,,,,,,,,,,,,,,,,,,,,,,,,,,,,,,,,,,,,,,,,,,,,,,,0,14,14,0,1,Animals,sheep_alpaca,Stimuli/Animals/sheep_alpaca/sheep_01.jpg,,,,,,,,,,,,,,,,,,,,,,,,,,,,,,,,,,,,,,,,,,,,,,,,,,,,,,,,,,,,,,,,,,,,,,,,,,,,,
,,,,,,,,5e459f9ae4317f085cc0af2d,26,M,R,2020-09-07_16h59.45.163,Hybrid_Search_Task,2020.2.3,Win32,60,,,,,,,,,,,,,,,,,,,,,,,,,,,,,,,,,,,,,,,,,,,,,,,,,,,,,,,,,,,,,,,,,,,,,,,,,,,,,,,,0,15,15,1,1,Animals,sheep_alpaca,Stimuli/Animals/sheep_alpaca/sheep_02.jpg,,,,,,,,,,,,,,,,,,,,,,,,,,,,,,,,,,,,,,,,,,,,,,,,,,,,,,,,,,,,,,,,,,,,,,,,,,,,,
,,,,,,,,5e459f9ae4317f085cc0af2d,26,M,R,2020-09-07_16h59.45.163,Hybrid_Search_Task,2020.2.3,Win32,60,,,,,,,,,,,,,,,,,,,,,,,,,,,,,,,,,,,,,,,,,,,,,,,,,,,,,,,,,,,,,,,,,,,,,,,,,,,,,,,,0,16,16,10,1,Animals,sheep_alpaca,Stimuli/Animals/sheep_alpaca/sheep_11.jpg,,,,,,,,,,,,,,,,,,,,,,,,,,,,,,,,,,,,,,,,,,,,,,,,,,,,,,,,,,,,,,,,,,,,,,,,,,,,,
,,,,,,,,5e459f9ae4317f085cc0af2d,26,M,R,2020-09-07_16h59.45.163,Hybrid_Search_Task,2020.2.3,Win32,60,,,,,,,,,,,,,,,,,,,,,,,,,,,,,,,,,,,,,,,,,,,,,,,,,,,,,,,,,,,,,,,,,,,,,,,,,,,,,,,,,,,,,,,,0,0,0,25,1,StimList/sheep_alpaca.xls,,,,,,,,,,,,,,,,,,,,,,,,,,,,,,,,,,,,,,,,,,,,,,,,,,,,,,,,,,,,,,,,,,,,,,,
,,,,,,,,5e459f9ae4317f085cc0af2d,26,M,R,2020-09-07_16h59.45.163,Hybrid_Search_Task,2020.2.3,Win32,60,,,,,,,,,,,,,,,,,,,,,,,,,,,,,,,,,,,,,,,,,,,,,,,,,,,,,,,,,,,,,,,,,,,,,,,,,,,,,,,,0,0,0,12,1,Animals,wolf,Stimuli/Animals/wolf/wolf_13.jpg,,,,,,,,,,,,,,,,,,,,,,,,,,,,,,,,,,,,,,,,,,,,,,,,,,,,,,,,,,,,,,,,,,,,,,,,,,,,,
,,,,,,,,5e459f9ae4317f085cc0af2d,26,M,R,2020-09-07_16h59.45.163,Hybrid_Search_Task,2020.2.3,Win32,60,,,,,,,,,,,,,,,,,,,,,,,,,,,,,,,,,,,,,,,,,,,,,,,,,,,,,,,,,,,,,,,,,,,,,,,,,,,,,,,,0,1,1,5,1,Animals,wolf,Stimuli/Animals/wolf/wolf_06.jpg,,,,,,,,,,,,,,,,,,,,,,,,,,,,,,,,,,,,,,,,,,,,,,,,,,,,,,,,,,,,,,,,,,,,,,,,,,,,,
,,,,,,,,5e459f9ae4317f085cc0af2d,26,M,R,2020-09-07_16h59.45.163,Hybrid_Search_Task,2020.2.3,Win32,60,,,,,,,,,,,,,,,,,,,,,,,,,,,,,,,,,,,,,,,,,,,,,,,,,,,,,,,,,,,,,,,,,,,,,,,,,,,,,,,,0,2,2,10,1,Animals,wolf,Stimuli/Animals/wolf/wolf_11.jpg,,,,,,,,,,,,,,,,,,,,,,,,,,,,,,,,,,,,,,,,,,,,,,,,,,,,,,,,,,,,,,,,,,,,,,,,,,,,,
,,,,,,,,5e459f9ae4317f085cc0af2d,26,M,R,2020-09-07_16h59.45.163,Hybrid_Search_Task,2020.2.3,Win32,60,,,,,,,,,,,,,,,,,,,,,,,,,,,,,,,,,,,,,,,,,,,,,,,,,,,,,,,,,,,,,,,,,,,,,,,,,,,,,,,,0,3,3,9,1,Animals,wolf,Stimuli/Animals/wolf/wolf_10.jpg,,,,,,,,,,,,,,,,,,,,,,,,,,,,,,,,,,,,,,,,,,,,,,,,,,,,,,,,,,,,,,,,,,,,,,,,,,,,,
,,,,,,,,5e459f9ae4317f085cc0af2d,26,M,R,2020-09-07_16h59.45.163,Hybrid_Search_Task,2020.2.3,Win32,60,,,,,,,,,,,,,,,,,,,,,,,,,,,,,,,,,,,,,,,,,,,,,,,,,,,,,,,,,,,,,,,,,,,,,,,,,,,,,,,,0,4,4,1,1,Animals,wolf,Stimuli/Animals/wolf/wolf_02.jpg,,,,,,,,,,,,,,,,,,,,,,,,,,,,,,,,,,,,,,,,,,,,,,,,,,,,,,,,,,,,,,,,,,,,,,,,,,,,,
,,,,,,,,5e459f9ae4317f085cc0af2d,26,M,R,2020-09-07_16h59.45.163,Hybrid_Search_Task,2020.2.3,Win32,60,,,,,,,,,,,,,,,,,,,,,,,,,,,,,,,,,,,,,,,,,,,,,,,,,,,,,,,,,,,,,,,,,,,,,,,,,,,,,,,,0,5,5,6,1,Animals,wolf,Stimuli/Animals/wolf/wolf_07.jpg,,,,,,,,,,,,,,,,,,,,,,,,,,,,,,,,,,,,,,,,,,,,,,,,,,,,,,,,,,,,,,,,,,,,,,,,,,,,,
,,,,,,,,5e459f9ae4317f085cc0af2d,26,M,R,2020-09-07_16h59.45.163,Hybrid_Search_Task,2020.2.3,Win32,60,,,,,,,,,,,,,,,,,,,,,,,,,,,,,,,,,,,,,,,,,,,,,,,,,,,,,,,,,,,,,,,,,,,,,,,,,,,,,,,,0,6,6,4,1,Animals,wolf,Stimuli/Animals/wolf/wolf_05.jpg,,,,,,,,,,,,,,,,,,,,,,,,,,,,,,,,,,,,,,,,,,,,,,,,,,,,,,,,,,,,,,,,,,,,,,,,,,,,,
,,,,,,,,5e459f9ae4317f085cc0af2d,26,M,R,2020-09-07_16h59.45.163,Hybrid_Search_Task,2020.2.3,Win32,60,,,,,,,,,,,,,,,,,,,,,,,,,,,,,,,,,,,,,,,,,,,,,,,,,,,,,,,,,,,,,,,,,,,,,,,,,,,,,,,,0,7,7,7,1,Animals,wolf,Stimuli/Animals/wolf/wolf_08.jpg,,,,,,,,,,,,,,,,,,,,,,,,,,,,,,,,,,,,,,,,,,,,,,,,,,,,,,,,,,,,,,,,,,,,,,,,,,,,,
,,,,,,,,5e459f9ae4317f085cc0af2d,26,M,R,2020-09-07_16h59.45.163,Hybrid_Search_Task,2020.2.3,Win32,60,,,,,,,,,,,,,,,,,,,,,,,,,,,,,,,,,,,,,,,,,,,,,,,,,,,,,,,,,,,,,,,,,,,,,,,,,,,,,,,,0,8,8,15,1,Animals,wolf,Stimuli/Animals/wolf/wolf_16.jpg,,,,,,,,,,,,,,,,,,,,,,,,,,,,,,,,,,,,,,,,,,,,,,,,,,,,,,,,,,,,,,,,,,,,,,,,,,,,,
,,,,,,,,5e459f9ae4317f085cc0af2d,26,M,R,2020-09-07_16h59.45.163,Hybrid_Search_Task,2020.2.3,Win32,60,,,,,,,,,,,,,,,,,,,,,,,,,,,,,,,,,,,,,,,,,,,,,,,,,,,,,,,,,,,,,,,,,,,,,,,,,,,,,,,,0,9,9,13,1,Animals,wolf,Stimuli/Animals/wolf/wolf_14.jpg,,,,,,,,,,,,,,,,,,,,,,,,,,,,,,,,,,,,,,,,,,,,,,,,,,,,,,,,,,,,,,,,,,,,,,,,,,,,,
,,,,,,,,5e459f9ae4317f085cc0af2d,26,M,R,2020-09-07_16h59.45.163,Hybrid_Search_Task,2020.2.3,Win32,60,,,,,,,,,,,,,,,,,,,,,,,,,,,,,,,,,,,,,,,,,,,,,,,,,,,,,,,,,,,,,,,,,,,,,,,,,,,,,,,,0,10,10,14,1,Animals,wolf,Stimuli/Animals/wolf/wolf_15.jpg,,,,,,,,,,,,,,,,,,,,,,,,,,,,,,,,,,,,,,,,,,,,,,,,,,,,,,,,,,,,,,,,,,,,,,,,,,,,,
,,,,,,,,5e459f9ae4317f085cc0af2d,26,M,R,2020-09-07_16h59.45.163,Hybrid_Search_Task,2020.2.3,Win32,60,,,,,,,,,,,,,,,,,,,,,,,,,,,,,,,,,,,,,,,,,,,,,,,,,,,,,,,,,,,,,,,,,,,,,,,,,,,,,,,,0,11,11,3,1,Animals,wolf,Stimuli/Animals/wolf/wolf_04.jpg,,,,,,,,,,,,,,,,,,,,,,,,,,,,,,,,,,,,,,,,,,,,,,,,,,,,,,,,,,,,,,,,,,,,,,,,,,,,,
,,,,,,,,5e459f9ae4317f085cc0af2d,26,M,R,2020-09-07_16h59.45.163,Hybrid_Search_Task,2020.2.3,Win32,60,,,,,,,,,,,,,,,,,,,,,,,,,,,,,,,,,,,,,,,,,,,,,,,,,,,,,,,,,,,,,,,,,,,,,,,,,,,,,,,,0,12,12,2,1,Animals,wolf,Stimuli/Animals/wolf/wolf_03.jpg,,,,,,,,,,,,,,,,,,,,,,,,,,,,,,,,,,,,,,,,,,,,,,,,,,,,,,,,,,,,,,,,,,,,,,,,,,,,,
,,,,,,,,5e459f9ae4317f085cc0af2d,26,M,R,2020-09-07_16h59.45.163,Hybrid_Search_Task,2020.2.3,Win32,60,,,,,,,,,,,,,,,,,,,,,,,,,,,,,,,,,,,,,,,,,,,,,,,,,,,,,,,,,,,,,,,,,,,,,,,,,,,,,,,,0,13,13,11,1,Animals,wolf,Stimuli/Animals/wolf/wolf_12.jpg,,,,,,,,,,,,,,,,,,,,,,,,,,,,,,,,,,,,,,,,,,,,,,,,,,,,,,,,,,,,,,,,,,,,,,,,,,,,,
,,,,,,,,5e459f9ae4317f085cc0af2d,26,M,R,2020-09-07_16h59.45.163,Hybrid_Search_Task,2020.2.3,Win32,60,,,,,,,,,,,,,,,,,,,,,,,,,,,,,,,,,,,,,,,,,,,,,,,,,,,,,,,,,,,,,,,,,,,,,,,,,,,,,,,,0,14,14,0,1,Animals,wolf,Stimuli/Animals/wolf/wolf_01.jpg,,,,,,,,,,,,,,,,,,,,,,,,,,,,,,,,,,,,,,,,,,,,,,,,,,,,,,,,,,,,,,,,,,,,,,,,,,,,,
,,,,,,,,5e459f9ae4317f085cc0af2d,26,M,R,2020-09-07_16h59.45.163,Hybrid_Search_Task,2020.2.3,Win32,60,,,,,,,,,,,,,,,,,,,,,,,,,,,,,,,,,,,,,,,,,,,,,,,,,,,,,,,,,,,,,,,,,,,,,,,,,,,,,,,,0,15,15,16,1,Animals,wolf,Stimuli/Animals/wolf/wolf_17.jpg,,,,,,,,,,,,,,,,,,,,,,,,,,,,,,,,,,,,,,,,,,,,,,,,,,,,,,,,,,,,,,,,,,,,,,,,,,,,,
,,,,,,,,5e459f9ae4317f085cc0af2d,26,M,R,2020-09-07_16h59.45.163,Hybrid_Search_Task,2020.2.3,Win32,60,,,,,,,,,,,,,,,,,,,,,,,,,,,,,,,,,,,,,,,,,,,,,,,,,,,,,,,,,,,,,,,,,,,,,,,,,,,,,,,,0,16,16,8,1,Animals,wolf,Stimuli/Animals/wolf/wolf_09.jpg,,,,,,,,,,,,,,,,,,,,,,,,,,,,,,,,,,,,,,,,,,,,,,,,,,,,,,,,,,,,,,,,,,,,,,,,,,,,,
,,,,,,,,5e459f9ae4317f085cc0af2d,26,M,R,2020-09-07_16h59.45.163,Hybrid_Search_Task,2020.2.3,Win32,60,,,,,,,,,,,,,,,,,,,,,,,,,,,,,,,,,,,,,,,,,,,,,,,,,,,,,,,,,,,,,,,,,,,,,,,,,,,,,,,,,,,,,,,,0,1,1,29,1,StimList/wolf.xls,,,,,,,,,,,,,,,,,,,,,,,,,,,,,,,,,,,,,,,,,,,,,,,,,,,,,,,,,,,,,,,,,,,,,,,
,,,,,,,,5e459f9ae4317f085cc0af2d,26,M,R,2020-09-07_16h59.45.163,Hybrid_Search_Task,2020.2.3,Win32,60,,,,,,,,,,,,,,,,,,,,,,,,,,,,,,,,,,,,,,,,,,,,,,,,,,,,,,,,,,,,,,,,,,,,,,,,,,,,,,,,0,0,0,2,1,Animals,insect,Stimuli/Animals/insect/insect_03.jpg,,,,,,,,,,,,,,,,,,,,,,,,,,,,,,,,,,,,,,,,,,,,,,,,,,,,,,,,,,,,,,,,,,,,,,,,,,,,,
,,,,,,,,5e459f9ae4317f085cc0af2d,26,M,R,2020-09-07_16h59.45.163,Hybrid_Search_Task,2020.2.3,Win32,60,,,,,,,,,,,,,,,,,,,,,,,,,,,,,,,,,,,,,,,,,,,,,,,,,,,,,,,,,,,,,,,,,,,,,,,,,,,,,,,,0,1,1,10,1,Animals,insect,Stimuli/Animals/insect/insect_11.jpg,,,,,,,,,,,,,,,,,,,,,,,,,,,,,,,,,,,,,,,,,,,,,,,,,,,,,,,,,,,,,,,,,,,,,,,,,,,,,
,,,,,,,,5e459f9ae4317f085cc0af2d,26,M,R,2020-09-07_16h59.45.163,Hybrid_Search_Task,2020.2.3,Win32,60,,,,,,,,,,,,,,,,,,,,,,,,,,,,,,,,,,,,,,,,,,,,,,,,,,,,,,,,,,,,,,,,,,,,,,,,,,,,,,,,0,2,2,14,1,Animals,insect,Stimuli/Animals/insect/insect_15.jpg,,,,,,,,,,,,,,,,,,,,,,,,,,,,,,,,,,,,,,,,,,,,,,,,,,,,,,,,,,,,,,,,,,,,,,,,,,,,,
,,,,,,,,5e459f9ae4317f085cc0af2d,26,M,R,2020-09-07_16h59.45.163,Hybrid_Search_Task,2020.2.3,Win32,60,,,,,,,,,,,,,,,,,,,,,,,,,,,,,,,,,,,,,,,,,,,,,,,,,,,,,,,,,,,,,,,,,,,,,,,,,,,,,,,,0,3,3,16,1,Animals,insect,Stimuli/Animals/insect/insect_17.jpg,,,,,,,,,,,,,,,,,,,,,,,,,,,,,,,,,,,,,,,,,,,,,,,,,,,,,,,,,,,,,,,,,,,,,,,,,,,,,
,,,,,,,,5e459f9ae4317f085cc0af2d,26,M,R,2020-09-07_16h59.45.163,Hybrid_Search_Task,2020.2.3,Win32,60,,,,,,,,,,,,,,,,,,,,,,,,,,,,,,,,,,,,,,,,,,,,,,,,,,,,,,,,,,,,,,,,,,,,,,,,,,,,,,,,0,4,4,5,1,Animals,insect,Stimuli/Animals/insect/insect_06.jpg,,,,,,,,,,,,,,,,,,,,,,,,,,,,,,,,,,,,,,,,,,,,,,,,,,,,,,,,,,,,,,,,,,,,,,,,,,,,,
,,,,,,,,5e459f9ae4317f085cc0af2d,26,M,R,2020-09-07_16h59.45.163,Hybrid_Search_Task,2020.2.3,Win32,60,,,,,,,,,,,,,,,,,,,,,,,,,,,,,,,,,,,,,,,,,,,,,,,,,,,,,,,,,,,,,,,,,,,,,,,,,,,,,,,,0,5,5,4,1,Animals,insect,Stimuli/Animals/insect/insect_05.jpg,,,,,,,,,,,,,,,,,,,,,,,,,,,,,,,,,,,,,,,,,,,,,,,,,,,,,,,,,,,,,,,,,,,,,,,,,,,,,
,,,,,,,,5e459f9ae4317f085cc0af2d,26,M,R,2020-09-07_16h59.45.163,Hybrid_Search_Task,2020.2.3,Win32,60,,,,,,,,,,,,,,,,,,,,,,,,,,,,,,,,,,,,,,,,,,,,,,,,,,,,,,,,,,,,,,,,,,,,,,,,,,,,,,,,0,6,6,3,1,Animals,insect,Stimuli/Animals/insect/insect_04.jpg,,,,,,,,,,,,,,,,,,,,,,,,,,,,,,,,,,,,,,,,,,,,,,,,,,,,,,,,,,,,,,,,,,,,,,,,,,,,,
,,,,,,,,5e459f9ae4317f085cc0af2d,26,M,R,2020-09-07_16h59.45.163,Hybrid_Search_Task,2020.2.3,Win32,60,,,,,,,,,,,,,,,,,,,,,,,,,,,,,,,,,,,,,,,,,,,,,,,,,,,,,,,,,,,,,,,,,,,,,,,,,,,,,,,,0,7,7,15,1,Animals,insect,Stimuli/Animals/insect/insect_16.jpg,,,,,,,,,,,,,,,,,,,,,,,,,,,,,,,,,,,,,,,,,,,,,,,,,,,,,,,,,,,,,,,,,,,,,,,,,,,,,
,,,,,,,,5e459f9ae4317f085cc0af2d,26,M,R,2020-09-07_16h59.45.163,Hybrid_Search_Task,2020.2.3,Win32,60,,,,,,,,,,,,,,,,,,,,,,,,,,,,,,,,,,,,,,,,,,,,,,,,,,,,,,,,,,,,,,,,,,,,,,,,,,,,,,,,0,8,8,11,1,Animals,insect,Stimuli/Animals/insect/insect_12.jpg,,,,,,,,,,,,,,,,,,,,,,,,,,,,,,,,,,,,,,,,,,,,,,,,,,,,,,,,,,,,,,,,,,,,,,,,,,,,,
,,,,,,,,5e459f9ae4317f085cc0af2d,26,M,R,2020-09-07_16h59.45.163,Hybrid_Search_Task,2020.2.3,Win32,60,,,,,,,,,,,,,,,,,,,,,,,,,,,,,,,,,,,,,,,,,,,,,,,,,,,,,,,,,,,,,,,,,,,,,,,,,,,,,,,,0,9,9,12,1,Animals,insect,Stimuli/Animals/insect/insect_13.jpg,,,,,,,,,,,,,,,,,,,,,,,,,,,,,,,,,,,,,,,,,,,,,,,,,,,,,,,,,,,,,,,,,,,,,,,,,,,,,
,,,,,,,,5e459f9ae4317f085cc0af2d,26,M,R,2020-09-07_16h59.45.163,Hybrid_Search_Task,2020.2.3,Win32,60,,,,,,,,,,,,,,,,,,,,,,,,,,,,,,,,,,,,,,,,,,,,,,,,,,,,,,,,,,,,,,,,,,,,,,,,,,,,,,,,0,10,10,9,1,Animals,insect,Stimuli/Animals/insect/insect_10.jpg,,,,,,,,,,,,,,,,,,,,,,,,,,,,,,,,,,,,,,,,,,,,,,,,,,,,,,,,,,,,,,,,,,,,,,,,,,,,,
,,,,,,,,5e459f9ae4317f085cc0af2d,26,M,R,2020-09-07_16h59.45.163,Hybrid_Search_Task,2020.2.3,Win32,60,,,,,,,,,,,,,,,,,,,,,,,,,,,,,,,,,,,,,,,,,,,,,,,,,,,,,,,,,,,,,,,,,,,,,,,,,,,,,,,,0,11,11,8,1,Animals,insect,Stimuli/Animals/insect/insect_09.jpg,,,,,,,,,,,,,,,,,,,,,,,,,,,,,,,,,,,,,,,,,,,,,,,,,,,,,,,,,,,,,,,,,,,,,,,,,,,,,
,,,,,,,,5e459f9ae4317f085cc0af2d,26,M,R,2020-09-07_16h59.45.163,Hybrid_Search_Task,2020.2.3,Win32,60,,,,,,,,,,,,,,,,,,,,,,,,,,,,,,,,,,,,,,,,,,,,,,,,,,,,,,,,,,,,,,,,,,,,,,,,,,,,,,,,0,12,12,0,1,Animals,insect,Stimuli/Animals/insect/insect_01.jpg,,,,,,,,,,,,,,,,,,,,,,,,,,,,,,,,,,,,,,,,,,,,,,,,,,,,,,,,,,,,,,,,,,,,,,,,,,,,,
,,,,,,,,5e459f9ae4317f085cc0af2d,26,M,R,2020-09-07_16h59.45.163,Hybrid_Search_Task,2020.2.3,Win32,60,,,,,,,,,,,,,,,,,,,,,,,,,,,,,,,,,,,,,,,,,,,,,,,,,,,,,,,,,,,,,,,,,,,,,,,,,,,,,,,,0,13,13,1,1,Animals,insect,Stimuli/Animals/insect/insect_02.jpg,,,,,,,,,,,,,,,,,,,,,,,,,,,,,,,,,,,,,,,,,,,,,,,,,,,,,,,,,,,,,,,,,,,,,,,,,,,,,
,,,,,,,,5e459f9ae4317f085cc0af2d,26,M,R,2020-09-07_16h59.45.163,Hybrid_Search_Task,2020.2.3,Win32,60,,,,,,,,,,,,,,,,,,,,,,,,,,,,,,,,,,,,,,,,,,,,,,,,,,,,,,,,,,,,,,,,,,,,,,,,,,,,,,,,0,14,14,7,1,Animals,insect,Stimuli/Animals/insect/insect_08.jpg,,,,,,,,,,,,,,,,,,,,,,,,,,,,,,,,,,,,,,,,,,,,,,,,,,,,,,,,,,,,,,,,,,,,,,,,,,,,,
,,,,,,,,5e459f9ae4317f085cc0af2d,26,M,R,2020-09-07_16h59.45.163,Hybrid_Search_Task,2020.2.3,Win32,60,,,,,,,,,,,,,,,,,,,,,,,,,,,,,,,,,,,,,,,,,,,,,,,,,,,,,,,,,,,,,,,,,,,,,,,,,,,,,,,,0,15,15,6,1,Animals,insect,Stimuli/Animals/insect/insect_07.jpg,,,,,,,,,,,,,,,,,,,,,,,,,,,,,,,,,,,,,,,,,,,,,,,,,,,,,,,,,,,,,,,,,,,,,,,,,,,,,
,,,,,,,,5e459f9ae4317f085cc0af2d,26,M,R,2020-09-07_16h59.45.163,Hybrid_Search_Task,2020.2.3,Win32,60,,,,,,,,,,,,,,,,,,,,,,,,,,,,,,,,,,,,,,,,,,,,,,,,,,,,,,,,,,,,,,,,,,,,,,,,,,,,,,,,0,16,16,13,1,Animals,insect,Stimuli/Animals/insect/insect_14.jpg,,,,,,,,,,,,,,,,,,,,,,,,,,,,,,,,,,,,,,,,,,,,,,,,,,,,,,,,,,,,,,,,,,,,,,,,,,,,,
,,,,,,,,5e459f9ae4317f085cc0af2d,26,M,R,2020-09-07_16h59.45.163,Hybrid_Search_Task,2020.2.3,Win32,60,,,,,,,,,,,,,,,,,,,,,,,,,,,,,,,,,,,,,,,,,,,,,,,,,,,,,,,,,,,,,,,,,,,,,,,,,,,,,,,,,,,,,,,,0,2,2,13,1,StimList/insect.xls,,,,,,,,,,,,,,,,,,,,,,,,,,,,,,,,,,,,,,,,,,,,,,,,,,,,,,,,,,,,,,,,,,,,,,,
,,,,,,,,5e459f9ae4317f085cc0af2d,26,M,R,2020-09-07_16h59.45.163,Hybrid_Search_Task,2020.2.3,Win32,60,,,,,,,,,,,,,,,,,,,,,,,,,,,,,,,,,,,,,,,,,,,,,,,,,,,,,,,,,,,,,,,,,,,,,,,,,,,,,,,,0,0,0,8,1,Animals,beast,Stimuli/Animals/beast/beast_09.jpg,,,,,,,,,,,,,,,,,,,,,,,,,,,,,,,,,,,,,,,,,,,,,,,,,,,,,,,,,,,,,,,,,,,,,,,,,,,,,
,,,,,,,,5e459f9ae4317f085cc0af2d,26,M,R,2020-09-07_16h59.45.163,Hybrid_Search_Task,2020.2.3,Win32,60,,,,,,,,,,,,,,,,,,,,,,,,,,,,,,,,,,,,,,,,,,,,,,,,,,,,,,,,,,,,,,,,,,,,,,,,,,,,,,,,0,1,1,9,1,Animals,beast,Stimuli/Animals/beast/beast_10.jpg,,,,,,,,,,,,,,,,,,,,,,,,,,,,,,,,,,,,,,,,,,,,,,,,,,,,,,,,,,,,,,,,,,,,,,,,,,,,,
,,,,,,,,5e459f9ae4317f085cc0af2d,26,M,R,2020-09-07_16h59.45.163,Hybrid_Search_Task,2020.2.3,Win32,60,,,,,,,,,,,,,,,,,,,,,,,,,,,,,,,,,,,,,,,,,,,,,,,,,,,,,,,,,,,,,,,,,,,,,,,,,,,,,,,,0,2,2,3,1,Animals,beast,Stimuli/Animals/beast/beast_04.jpg,,,,,,,,,,,,,,,,,,,,,,,,,,,,,,,,,,,,,,,,,,,,,,,,,,,,,,,,,,,,,,,,,,,,,,,,,,,,,
,,,,,,,,5e459f9ae4317f085cc0af2d,26,M,R,2020-09-07_16h59.45.163,Hybrid_Search_Task,2020.2.3,Win32,60,,,,,,,,,,,,,,,,,,,,,,,,,,,,,,,,,,,,,,,,,,,,,,,,,,,,,,,,,,,,,,,,,,,,,,,,,,,,,,,,0,3,3,1,1,Animals,beast,Stimuli/Animals/beast/beast_02.jpg,,,,,,,,,,,,,,,,,,,,,,,,,,,,,,,,,,,,,,,,,,,,,,,,,,,,,,,,,,,,,,,,,,,,,,,,,,,,,
,,,,,,,,5e459f9ae4317f085cc0af2d,26,M,R,2020-09-07_16h59.45.163,Hybrid_Search_Task,2020.2.3,Win32,60,,,,,,,,,,,,,,,,,,,,,,,,,,,,,,,,,,,,,,,,,,,,,,,,,,,,,,,,,,,,,,,,,,,,,,,,,,,,,,,,0,4,4,7,1,Animals,beast,Stimuli/Animals/beast/beast_08.jpg,,,,,,,,,,,,,,,,,,,,,,,,,,,,,,,,,,,,,,,,,,,,,,,,,,,,,,,,,,,,,,,,,,,,,,,,,,,,,
,,,,,,,,5e459f9ae4317f085cc0af2d,26,M,R,2020-09-07_16h59.45.163,Hybrid_Search_Task,2020.2.3,Win32,60,,,,,,,,,,,,,,,,,,,,,,,,,,,,,,,,,,,,,,,,,,,,,,,,,,,,,,,,,,,,,,,,,,,,,,,,,,,,,,,,0,5,5,10,1,Animals,beast,Stimuli/Animals/beast/beast_11.jpg,,,,,,,,,,,,,,,,,,,,,,,,,,,,,,,,,,,,,,,,,,,,,,,,,,,,,,,,,,,,,,,,,,,,,,,,,,,,,
,,,,,,,,5e459f9ae4317f085cc0af2d,26,M,R,2020-09-07_16h59.45.163,Hybrid_Search_Task,2020.2.3,Win32,60,,,,,,,,,,,,,,,,,,,,,,,,,,,,,,,,,,,,,,,,,,,,,,,,,,,,,,,,,,,,,,,,,,,,,,,,,,,,,,,,0,6,6,2,1,Animals,beast,Stimuli/Animals/beast/beast_03.jpg,,,,,,,,,,,,,,,,,,,,,,,,,,,,,,,,,,,,,,,,,,,,,,,,,,,,,,,,,,,,,,,,,,,,,,,,,,,,,
,,,,,,,,5e459f9ae4317f085cc0af2d,26,M,R,2020-09-07_16h59.45.163,Hybrid_Search_Task,2020.2.3,Win32,60,,,,,,,,,,,,,,,,,,,,,,,,,,,,,,,,,,,,,,,,,,,,,,,,,,,,,,,,,,,,,,,,,,,,,,,,,,,,,,,,0,7,7,15,1,Animals,beast,Stimuli/Animals/beast/beast_16.jpg,,,,,,,,,,,,,,,,,,,,,,,,,,,,,,,,,,,,,,,,,,,,,,,,,,,,,,,,,,,,,,,,,,,,,,,,,,,,,
,,,,,,,,5e459f9ae4317f085cc0af2d,26,M,R,2020-09-07_16h59.45.163,Hybrid_Search_Task,2020.2.3,Win32,60,,,,,,,,,,,,,,,,,,,,,,,,,,,,,,,,,,,,,,,,,,,,,,,,,,,,,,,,,,,,,,,,,,,,,,,,,,,,,,,,0,8,8,0,1,Animals,beast,Stimuli/Animals/beast/beast_01.jpg,,,,,,,,,,,,,,,,,,,,,,,,,,,,,,,,,,,,,,,,,,,,,,,,,,,,,,,,,,,,,,,,,,,,,,,,,,,,,
,,,,,,,,5e459f9ae4317f085cc0af2d,26,M,R,2020-09-07_16h59.45.163,Hybrid_Search_Task,2020.2.3,Win32,60,,,,,,,,,,,,,,,,,,,,,,,,,,,,,,,,,,,,,,,,,,,,,,,,,,,,,,,,,,,,,,,,,,,,,,,,,,,,,,,,0,9,9,5,1,Animals,beast,Stimuli/Animals/beast/beast_06.jpg,,,,,,,,,,,,,,,,,,,,,,,,,,,,,,,,,,,,,,,,,,,,,,,,,,,,,,,,,,,,,,,,,,,,,,,,,,,,,
,,,,,,,,5e459f9ae4317f085cc0af2d,26,M,R,2020-09-07_16h59.45.163,Hybrid_Search_Task,2020.2.3,Win32,60,,,,,,,,,,,,,,,,,,,,,,,,,,,,,,,,,,,,,,,,,,,,,,,,,,,,,,,,,,,,,,,,,,,,,,,,,,,,,,,,0,10,10,11,1,Animals,beast,Stimuli/Animals/beast/beast_12.jpg,,,,,,,,,,,,,,,,,,,,,,,,,,,,,,,,,,,,,,,,,,,,,,,,,,,,,,,,,,,,,,,,,,,,,,,,,,,,,
,,,,,,,,5e459f9ae4317f085cc0af2d,26,M,R,2020-09-07_16h59.45.163,Hybrid_Search_Task,2020.2.3,Win32,60,,,,,,,,,,,,,,,,,,,,,,,,,,,,,,,,,,,,,,,,,,,,,,,,,,,,,,,,,,,,,,,,,,,,,,,,,,,,,,,,0,11,11,13,1,Animals,beast,Stimuli/Animals/beast/beast_14.jpg,,,,,,,,,,,,,,,,,,,,,,,,,,,,,,,,,,,,,,,,,,,,,,,,,,,,,,,,,,,,,,,,,,,,,,,,,,,,,
,,,,,,,,5e459f9ae4317f085cc0af2d,26,M,R,2020-09-07_16h59.45.163,Hybrid_Search_Task,2020.2.3,Win32,60,,,,,,,,,,,,,,,,,,,,,,,,,,,,,,,,,,,,,,,,,,,,,,,,,,,,,,,,,,,,,,,,,,,,,,,,,,,,,,,,0,12,12,4,1,Animals,beast,Stimuli/Animals/beast/beast_05.jpg,,,,,,,,,,,,,,,,,,,,,,,,,,,,,,,,,,,,,,,,,,,,,,,,,,,,,,,,,,,,,,,,,,,,,,,,,,,,,
,,,,,,,,5e459f9ae4317f085cc0af2d,26,M,R,2020-09-07_16h59.45.163,Hybrid_Search_Task,2020.2.3,Win32,60,,,,,,,,,,,,,,,,,,,,,,,,,,,,,,,,,,,,,,,,,,,,,,,,,,,,,,,,,,,,,,,,,,,,,,,,,,,,,,,,0,13,13,6,1,Animals,beast,Stimuli/Animals/beast/beast_07.jpg,,,,,,,,,,,,,,,,,,,,,,,,,,,,,,,,,,,,,,,,,,,,,,,,,,,,,,,,,,,,,,,,,,,,,,,,,,,,,
,,,,,,,,5e459f9ae4317f085cc0af2d,26,M,R,2020-09-07_16h59.45.163,Hybrid_Search_Task,2020.2.3,Win32,60,,,,,,,,,,,,,,,,,,,,,,,,,,,,,,,,,,,,,,,,,,,,,,,,,,,,,,,,,,,,,,,,,,,,,,,,,,,,,,,,0,14,14,14,1,Animals,beast,Stimuli/Animals/beast/beast_15.jpg,,,,,,,,,,,,,,,,,,,,,,,,,,,,,,,,,,,,,,,,,,,,,,,,,,,,,,,,,,,,,,,,,,,,,,,,,,,,,
,,,,,,,,5e459f9ae4317f085cc0af2d,26,M,R,2020-09-07_16h59.45.163,Hybrid_Search_Task,2020.2.3,Win32,60,,,,,,,,,,,,,,,,,,,,,,,,,,,,,,,,,,,,,,,,,,,,,,,,,,,,,,,,,,,,,,,,,,,,,,,,,,,,,,,,0,15,15,16,1,Animals,beast,Stimuli/Animals/beast/beast_17.jpg,,,,,,,,,,,,,,,,,,,,,,,,,,,,,,,,,,,,,,,,,,,,,,,,,,,,,,,,,,,,,,,,,,,,,,,,,,,,,
,,,,,,,,5e459f9ae4317f085cc0af2d,26,M,R,2020-09-07_16h59.45.163,Hybrid_Search_Task,2020.2.3,Win32,60,,,,,,,,,,,,,,,,,,,,,,,,,,,,,,,,,,,,,,,,,,,,,,,,,,,,,,,,,,,,,,,,,,,,,,,,,,,,,,,,0,16,16,12,1,Animals,beast,Stimuli/Animals/beast/beast_13.jpg,,,,,,,,,,,,,,,,,,,,,,,,,,,,,,,,,,,,,,,,,,,,,,,,,,,,,,,,,,,,,,,,,,,,,,,,,,,,,
,,,,,,,,5e459f9ae4317f085cc0af2d,26,M,R,2020-09-07_16h59.45.163,Hybrid_Search_Task,2020.2.3,Win32,60,,,,,,,,,,,,,,,,,,,,,,,,,,,,,,,,,,,,,,,,,,,,,,,,,,,,,,,,,,,,,,,,,,,,,,,,,,,,,,,,,,,,,,,,0,3,3,0,1,StimList/beast.xls,,,,,,,,,,,,,,,,,,,,,,,,,,,,,,,,,,,,,,,,,,,,,,,,,,,,,,,,,,,,,,,,,,,,,,,
,,,,,,,,5e459f9ae4317f085cc0af2d,26,M,R,2020-09-07_16h59.45.163,Hybrid_Search_Task,2020.2.3,Win32,60,,,,,,,,,,,,,,,,,,,,,,,,,,,,,,,,,,,,,,,,,,,,,,,,,,,,,,,,,,,,,,,,,,,,,,,,,,,,,,,,0,0,0,6,1,Animals,dog,Stimuli/Animals/dog/dog_07.jpg,,,,,,,,,,,,,,,,,,,,,,,,,,,,,,,,,,,,,,,,,,,,,,,,,,,,,,,,,,,,,,,,,,,,,,,,,,,,,
,,,,,,,,5e459f9ae4317f085cc0af2d,26,M,R,2020-09-07_16h59.45.163,Hybrid_Search_Task,2020.2.3,Win32,60,,,,,,,,,,,,,,,,,,,,,,,,,,,,,,,,,,,,,,,,,,,,,,,,,,,,,,,,,,,,,,,,,,,,,,,,,,,,,,,,0,1,1,12,1,Animals,dog,Stimuli/Animals/dog/dog_13.jpg,,,,,,,,,,,,,,,,,,,,,,,,,,,,,,,,,,,,,,,,,,,,,,,,,,,,,,,,,,,,,,,,,,,,,,,,,,,,,
,,,,,,,,5e459f9ae4317f085cc0af2d,26,M,R,2020-09-07_16h59.45.163,Hybrid_Search_Task,2020.2.3,Win32,60,,,,,,,,,,,,,,,,,,,,,,,,,,,,,,,,,,,,,,,,,,,,,,,,,,,,,,,,,,,,,,,,,,,,,,,,,,,,,,,,0,2,2,2,1,Animals,dog,Stimuli/Animals/dog/dog_03.jpg,,,,,,,,,,,,,,,,,,,,,,,,,,,,,,,,,,,,,,,,,,,,,,,,,,,,,,,,,,,,,,,,,,,,,,,,,,,,,
,,,,,,,,5e459f9ae4317f085cc0af2d,26,M,R,2020-09-07_16h59.45.163,Hybrid_Search_Task,2020.2.3,Win32,60,,,,,,,,,,,,,,,,,,,,,,,,,,,,,,,,,,,,,,,,,,,,,,,,,,,,,,,,,,,,,,,,,,,,,,,,,,,,,,,,0,3,3,4,1,Animals,dog,Stimuli/Animals/dog/dog_05.jpg,,,,,,,,,,,,,,,,,,,,,,,,,,,,,,,,,,,,,,,,,,,,,,,,,,,,,,,,,,,,,,,,,,,,,,,,,,,,,
,,,,,,,,5e459f9ae4317f085cc0af2d,26,M,R,2020-09-07_16h59.45.163,Hybrid_Search_Task,2020.2.3,Win32,60,,,,,,,,,,,,,,,,,,,,,,,,,,,,,,,,,,,,,,,,,,,,,,,,,,,,,,,,,,,,,,,,,,,,,,,,,,,,,,,,0,4,4,8,1,Animals,dog,Stimuli/Animals/dog/dog_09.jpg,,,,,,,,,,,,,,,,,,,,,,,,,,,,,,,,,,,,,,,,,,,,,,,,,,,,,,,,,,,,,,,,,,,,,,,,,,,,,
,,,,,,,,5e459f9ae4317f085cc0af2d,26,M,R,2020-09-07_16h59.45.163,Hybrid_Search_Task,2020.2.3,Win32,60,,,,,,,,,,,,,,,,,,,,,,,,,,,,,,,,,,,,,,,,,,,,,,,,,,,,,,,,,,,,,,,,,,,,,,,,,,,,,,,,0,5,5,9,1,Animals,dog,Stimuli/Animals/dog/dog_10.jpg,,,,,,,,,,,,,,,,,,,,,,,,,,,,,,,,,,,,,,,,,,,,,,,,,,,,,,,,,,,,,,,,,,,,,,,,,,,,,
,,,,,,,,5e459f9ae4317f085cc0af2d,26,M,R,2020-09-07_16h59.45.163,Hybrid_Search_Task,2020.2.3,Win32,60,,,,,,,,,,,,,,,,,,,,,,,,,,,,,,,,,,,,,,,,,,,,,,,,,,,,,,,,,,,,,,,,,,,,,,,,,,,,,,,,0,6,6,14,1,Animals,dog,Stimuli/Animals/dog/dog_15.jpg,,,,,,,,,,,,,,,,,,,,,,,,,,,,,,,,,,,,,,,,,,,,,,,,,,,,,,,,,,,,,,,,,,,,,,,,,,,,,
,,,,,,,,5e459f9ae4317f085cc0af2d,26,M,R,2020-09-07_16h59.45.163,Hybrid_Search_Task,2020.2.3,Win32,60,,,,,,,,,,,,,,,,,,,,,,,,,,,,,,,,,,,,,,,,,,,,,,,,,,,,,,,,,,,,,,,,,,,,,,,,,,,,,,,,0,7,7,11,1,Animals,dog,Stimuli/Animals/dog/dog_12.jpg,,,,,,,,,,,,,,,,,,,,,,,,,,,,,,,,,,,,,,,,,,,,,,,,,,,,,,,,,,,,,,,,,,,,,,,,,,,,,
,,,,,,,,5e459f9ae4317f085cc0af2d,26,M,R,2020-09-07_16h59.45.163,Hybrid_Search_Task,2020.2.3,Win32,60,,,,,,,,,,,,,,,,,,,,,,,,,,,,,,,,,,,,,,,,,,,,,,,,,,,,,,,,,,,,,,,,,,,,,,,,,,,,,,,,0,8,8,15,1,Animals,dog,Stimuli/Animals/dog/dog_16.jpg,,,,,,,,,,,,,,,,,,,,,,,,,,,,,,,,,,,,,,,,,,,,,,,,,,,,,,,,,,,,,,,,,,,,,,,,,,,,,
,,,,,,,,5e459f9ae4317f085cc0af2d,26,M,R,2020-09-07_16h59.45.163,Hybrid_Search_Task,2020.2.3,Win32,60,,,,,,,,,,,,,,,,,,,,,,,,,,,,,,,,,,,,,,,,,,,,,,,,,,,,,,,,,,,,,,,,,,,,,,,,,,,,,,,,0,9,9,5,1,Animals,dog,Stimuli/Animals/dog/dog_06.jpg,,,,,,,,,,,,,,,,,,,,,,,,,,,,,,,,,,,,,,,,,,,,,,,,,,,,,,,,,,,,,,,,,,,,,,,,,,,,,
,,,,,,,,5e459f9ae4317f085cc0af2d,26,M,R,2020-09-07_16h59.45.163,Hybrid_Search_Task,2020.2.3,Win32,60,,,,,,,,,,,,,,,,,,,,,,,,,,,,,,,,,,,,,,,,,,,,,,,,,,,,,,,,,,,,,,,,,,,,,,,,,,,,,,,,0,10,10,13,1,Animals,dog,Stimuli/Animals/dog/dog_14.jpg,,,,,,,,,,,,,,,,,,,,,,,,,,,,,,,,,,,,,,,,,,,,,,,,,,,,,,,,,,,,,,,,,,,,,,,,,,,,,
,,,,,,,,5e459f9ae4317f085cc0af2d,26,M,R,2020-09-07_16h59.45.163,Hybrid_Search_Task,2020.2.3,Win32,60,,,,,,,,,,,,,,,,,,,,,,,,,,,,,,,,,,,,,,,,,,,,,,,,,,,,,,,,,,,,,,,,,,,,,,,,,,,,,,,,0,11,11,3,1,Animals,dog,Stimuli/Animals/dog/dog_04.jpg,,,,,,,,,,,,,,,,,,,,,,,,,,,,,,,,,,,,,,,,,,,,,,,,,,,,,,,,,,,,,,,,,,,,,,,,,,,,,
,,,,,,,,5e459f9ae4317f085cc0af2d,26,M,R,2020-09-07_16h59.45.163,Hybrid_Search_Task,2020.2.3,Win32,60,,,,,,,,,,,,,,,,,,,,,,,,,,,,,,,,,,,,,,,,,,,,,,,,,,,,,,,,,,,,,,,,,,,,,,,,,,,,,,,,0,12,12,0,1,Animals,dog,Stimuli/Animals/dog/dog_01.jpg,,,,,,,,,,,,,,,,,,,,,,,,,,,,,,,,,,,,,,,,,,,,,,,,,,,,,,,,,,,,,,,,,,,,,,,,,,,,,
,,,,,,,,5e459f9ae4317f085cc0af2d,26,M,R,2020-09-07_16h59.45.163,Hybrid_Search_Task,2020.2.3,Win32,60,,,,,,,,,,,,,,,,,,,,,,,,,,,,,,,,,,,,,,,,,,,,,,,,,,,,,,,,,,,,,,,,,,,,,,,,,,,,,,,,0,13,13,1,1,Animals,dog,Stimuli/Animals/dog/dog_02.jpg,,,,,,,,,,,,,,,,,,,,,,,,,,,,,,,,,,,,,,,,,,,,,,,,,,,,,,,,,,,,,,,,,,,,,,,,,,,,,
,,,,,,,,5e459f9ae4317f085cc0af2d,26,M,R,2020-09-07_16h59.45.163,Hybrid_Search_Task,2020.2.3,Win32,60,,,,,,,,,,,,,,,,,,,,,,,,,,,,,,,,,,,,,,,,,,,,,,,,,,,,,,,,,,,,,,,,,,,,,,,,,,,,,,,,0,14,14,10,1,Animals,dog,Stimuli/Animals/dog/dog_11.jpg,,,,,,,,,,,,,,,,,,,,,,,,,,,,,,,,,,,,,,,,,,,,,,,,,,,,,,,,,,,,,,,,,,,,,,,,,,,,,
,,,,,,,,5e459f9ae4317f085cc0af2d,26,M,R,2020-09-07_16h59.45.163,Hybrid_Search_Task,2020.2.3,Win32,60,,,,,,,,,,,,,,,,,,,,,,,,,,,,,,,,,,,,,,,,,,,,,,,,,,,,,,,,,,,,,,,,,,,,,,,,,,,,,,,,0,15,15,7,1,Animals,dog,Stimuli/Animals/dog/dog_08.jpg,,,,,,,,,,,,,,,,,,,,,,,,,,,,,,,,,,,,,,,,,,,,,,,,,,,,,,,,,,,,,,,,,,,,,,,,,,,,,
,,,,,,,,5e459f9ae4317f085cc0af2d,26,M,R,2020-09-07_16h59.45.163,Hybrid_Search_Task,2020.2.3,Win32,60,,,,,,,,,,,,,,,,,,,,,,,,,,,,,,,,,,,,,,,,,,,,,,,,,,,,,,,,,,,,,,,,,,,,,,,,,,,,,,,,0,16,16,16,1,Animals,dog,Stimuli/Animals/dog/dog_17.jpg,,,,,,,,,,,,,,,,,,,,,,,,,,,,,,,,,,,,,,,,,,,,,,,,,,,,,,,,,,,,,,,,,,,,,,,,,,,,,
,,,,,,,,5e459f9ae4317f085cc0af2d,26,M,R,2020-09-07_16h59.45.163,Hybrid_Search_Task,2020.2.3,Win32,60,,,,,,,,,,,,,,,,,,,,,,,,,,,,,,,,,,,,,,,,,,,,,,,,,,,,,,,,,,,,,,,,,,,,,,,,,,,,,,,,,,,,,,,,0,4,4,7,1,StimList/dog.xls,,,,,,,,,,,,,,,,,,,,,,,,,,,,,,,,,,,,,,,,,,,,,,,,,,,,,,,,,,,,,,,,,,,,,,,
,,,,,,,,5e459f9ae4317f085cc0af2d,26,M,R,2020-09-07_16h59.45.163,Hybrid_Search_Task,2020.2.3,Win32,60,,,,,,,,,,,,,,,,,,,,,,,,,,,,,,,,,,,,,,,,,,,,,,,,,,,,,,,,,,,,,,,,,,,,,,,,,,,,,,,,0,0,0,12,1,Animals,crustacea,Stimuli/Animals/crustacea/crustacea_14.jpg,,,,,,,,,,,,,,,,,,,,,,,,,,,,,,,,,,,,,,,,,,,,,,,,,,,,,,,,,,,,,,,,,,,,,,,,,,,,,
,,,,,,,,5e459f9ae4317f085cc0af2d,26,M,R,2020-09-07_16h59.45.163,Hybrid_Search_Task,2020.2.3,Win32,60,,,,,,,,,,,,,,,,,,,,,,,,,,,,,,,,,,,,,,,,,,,,,,,,,,,,,,,,,,,,,,,,,,,,,,,,,,,,,,,,0,1,1,13,1,Animals,crustacea,Stimuli/Animals/crustacea/crustacea_15.jpg,,,,,,,,,,,,,,,,,,,,,,,,,,,,,,,,,,,,,,,,,,,,,,,,,,,,,,,,,,,,,,,,,,,,,,,,,,,,,
,,,,,,,,5e459f9ae4317f085cc0af2d,26,M,R,2020-09-07_16h59.45.163,Hybrid_Search_Task,2020.2.3,Win32,60,,,,,,,,,,,,,,,,,,,,,,,,,,,,,,,,,,,,,,,,,,,,,,,,,,,,,,,,,,,,,,,,,,,,,,,,,,,,,,,,0,2,2,9,1,Animals,crustacea,Stimuli/Animals/crustacea/crustacea_10.jpg,,,,,,,,,,,,,,,,,,,,,,,,,,,,,,,,,,,,,,,,,,,,,,,,,,,,,,,,,,,,,,,,,,,,,,,,,,,,,
,,,,,,,,5e459f9ae4317f085cc0af2d,26,M,R,2020-09-07_16h59.45.163,Hybrid_Search_Task,2020.2.3,Win32,60,,,,,,,,,,,,,,,,,,,,,,,,,,,,,,,,,,,,,,,,,,,,,,,,,,,,,,,,,,,,,,,,,,,,,,,,,,,,,,,,0,3,3,5,1,Animals,crustacea,Stimuli/Animals/crustacea/crustacea_06.jpg,,,,,,,,,,,,,,,,,,,,,,,,,,,,,,,,,,,,,,,,,,,,,,,,,,,,,,,,,,,,,,,,,,,,,,,,,,,,,
,,,,,,,,5e459f9ae4317f085cc0af2d,26,M,R,2020-09-07_16h59.45.163,Hybrid_Search_Task,2020.2.3,Win32,60,,,,,,,,,,,,,,,,,,,,,,,,,,,,,,,,,,,,,,,,,,,,,,,,,,,,,,,,,,,,,,,,,,,,,,,,,,,,,,,,0,4,4,15,1,Animals,crustacea,Stimuli/Animals/crustacea/crustacea_17.jpg,,,,,,,,,,,,,,,,,,,,,,,,,,,,,,,,,,,,,,,,,,,,,,,,,,,,,,,,,,,,,,,,,,,,,,,,,,,,,
,,,,,,,,5e459f9ae4317f085cc0af2d,26,M,R,2020-09-07_16h59.45.163,Hybrid_Search_Task,2020.2.3,Win32,60,,,,,,,,,,,,,,,,,,,,,,,,,,,,,,,,,,,,,,,,,,,,,,,,,,,,,,,,,,,,,,,,,,,,,,,,,,,,,,,,0,5,5,4,1,Animals,crustacea,Stimuli/Animals/crustacea/crustacea_05.jpg,,,,,,,,,,,,,,,,,,,,,,,,,,,,,,,,,,,,,,,,,,,,,,,,,,,,,,,,,,,,,,,,,,,,,,,,,,,,,
,,,,,,,,5e459f9ae4317f085cc0af2d,26,M,R,2020-09-07_16h59.45.163,Hybrid_Search_Task,2020.2.3,Win32,60,,,,,,,,,,,,,,,,,,,,,,,,,,,,,,,,,,,,,,,,,,,,,,,,,,,,,,,,,,,,,,,,,,,,,,,,,,,,,,,,0,6,6,1,1,Animals,crustacea,Stimuli/Animals/crustacea/crustacea_02.jpg,,,,,,,,,,,,,,,,,,,,,,,,,,,,,,,,,,,,,,,,,,,,,,,,,,,,,,,,,,,,,,,,,,,,,,,,,,,,,
,,,,,,,,5e459f9ae4317f085cc0af2d,26,M,R,2020-09-07_16h59.45.163,Hybrid_Search_Task,2020.2.3,Win32,60,,,,,,,,,,,,,,,,,,,,,,,,,,,,,,,,,,,,,,,,,,,,,,,,,,,,,,,,,,,,,,,,,,,,,,,,,,,,,,,,0,7,7,16,1,Animals,crustacea,Stimuli/Animals/crustacea/crustacea__11.jpg,,,,,,,,,,,,,,,,,,,,,,,,,,,,,,,,,,,,,,,,,,,,,,,,,,,,,,,,,,,,,,,,,,,,,,,,,,,,,
,,,,,,,,5e459f9ae4317f085cc0af2d,26,M,R,2020-09-07_16h59.45.163,Hybrid_Search_Task,2020.2.3,Win32,60,,,,,,,,,,,,,,,,,,,,,,,,,,,,,,,,,,,,,,,,,,,,,,,,,,,,,,,,,,,,,,,,,,,,,,,,,,,,,,,,0,8,8,14,1,Animals,crustacea,Stimuli/Animals/crustacea/crustacea_16.jpg,,,,,,,,,,,,,,,,,,,,,,,,,,,,,,,,,,,,,,,,,,,,,,,,,,,,,,,,,,,,,,,,,,,,,,,,,,,,,
,,,,,,,,5e459f9ae4317f085cc0af2d,26,M,R,2020-09-07_16h59.45.163,Hybrid_Search_Task,2020.2.3,Win32,60,,,,,,,,,,,,,,,,,,,,,,,,,,,,,,,,,,,,,,,,,,,,,,,,,,,,,,,,,,,,,,,,,,,,,,,,,,,,,,,,0,9,9,8,1,Animals,crustacea,Stimuli/Animals/crustacea/crustacea_09.jpg,,,,,,,,,,,,,,,,,,,,,,,,,,,,,,,,,,,,,,,,,,,,,,,,,,,,,,,,,,,,,,,,,,,,,,,,,,,,,
,,,,,,,,5e459f9ae4317f085cc0af2d,26,M,R,2020-09-07_16h59.45.163,Hybrid_Search_Task,2020.2.3,Win32,60,,,,,,,,,,,,,,,,,,,,,,,,,,,,,,,,,,,,,,,,,,,,,,,,,,,,,,,,,,,,,,,,,,,,,,,,,,,,,,,,0,10,10,6,1,Animals,crustacea,Stimuli/Animals/crustacea/crustacea_07.jpg,,,,,,,,,,,,,,,,,,,,,,,,,,,,,,,,,,,,,,,,,,,,,,,,,,,,,,,,,,,,,,,,,,,,,,,,,,,,,
,,,,,,,,5e459f9ae4317f085cc0af2d,26,M,R,2020-09-07_16h59.45.163,Hybrid_Search_Task,2020.2.3,Win32,60,,,,,,,,,,,,,,,,,,,,,,,,,,,,,,,,,,,,,,,,,,,,,,,,,,,,,,,,,,,,,,,,,,,,,,,,,,,,,,,,0,11,11,7,1,Animals,crustacea,Stimuli/Animals/crustacea/crustacea_08.jpg,,,,,,,,,,,,,,,,,,,,,,,,,,,,,,,,,,,,,,,,,,,,,,,,,,,,,,,,,,,,,,,,,,,,,,,,,,,,,
,,,,,,,,5e459f9ae4317f085cc0af2d,26,M,R,2020-09-07_16h59.45.163,Hybrid_Search_Task,2020.2.3,Win32,60,,,,,,,,,,,,,,,,,,,,,,,,,,,,,,,,,,,,,,,,,,,,,,,,,,,,,,,,,,,,,,,,,,,,,,,,,,,,,,,,0,12,12,2,1,Animals,crustacea,Stimuli/Animals/crustacea/crustacea_03.jpg,,,,,,,,,,,,,,,,,,,,,,,,,,,,,,,,,,,,,,,,,,,,,,,,,,,,,,,,,,,,,,,,,,,,,,,,,,,,,
,,,,,,,,5e459f9ae4317f085cc0af2d,26,M,R,2020-09-07_16h59.45.163,Hybrid_Search_Task,2020.2.3,Win32,60,,,,,,,,,,,,,,,,,,,,,,,,,,,,,,,,,,,,,,,,,,,,,,,,,,,,,,,,,,,,,,,,,,,,,,,,,,,,,,,,0,13,13,0,1,Animals,crustacea,Stimuli/Animals/crustacea/crustacea_01.jpg,,,,,,,,,,,,,,,,,,,,,,,,,,,,,,,,,,,,,,,,,,,,,,,,,,,,,,,,,,,,,,,,,,,,,,,,,,,,,
,,,,,,,,5e459f9ae4317f085cc0af2d,26,M,R,2020-09-07_16h59.45.163,Hybrid_Search_Task,2020.2.3,Win32,60,,,,,,,,,,,,,,,,,,,,,,,,,,,,,,,,,,,,,,,,,,,,,,,,,,,,,,,,,,,,,,,,,,,,,,,,,,,,,,,,0,14,14,11,1,Animals,crustacea,Stimuli/Animals/crustacea/crustacea_13.jpg,,,,,,,,,,,,,,,,,,,,,,,,,,,,,,,,,,,,,,,,,,,,,,,,,,,,,,,,,,,,,,,,,,,,,,,,,,,,,
,,,,,,,,5e459f9ae4317f085cc0af2d,26,M,R,2020-09-07_16h59.45.163,Hybrid_Search_Task,2020.2.3,Win32,60,,,,,,,,,,,,,,,,,,,,,,,,,,,,,,,,,,,,,,,,,,,,,,,,,,,,,,,,,,,,,,,,,,,,,,,,,,,,,,,,0,15,15,10,1,Animals,crustacea,Stimuli/Animals/crustacea/crustacea_12.jpg,,,,,,,,,,,,,,,,,,,,,,,,,,,,,,,,,,,,,,,,,,,,,,,,,,,,,,,,,,,,,,,,,,,,,,,,,,,,,
,,,,,,,,5e459f9ae4317f085cc0af2d,26,M,R,2020-09-07_16h59.45.163,Hybrid_Search_Task,2020.2.3,Win32,60,,,,,,,,,,,,,,,,,,,,,,,,,,,,,,,,,,,,,,,,,,,,,,,,,,,,,,,,,,,,,,,,,,,,,,,,,,,,,,,,0,16,16,3,1,Animals,crustacea,Stimuli/Animals/crustacea/crustacea_04.jpg,,,,,,,,,,,,,,,,,,,,,,,,,,,,,,,,,,,,,,,,,,,,,,,,,,,,,,,,,,,,,,,,,,,,,,,,,,,,,
,,,,,,,,5e459f9ae4317f085cc0af2d,26,M,R,2020-09-07_16h59.45.163,Hybrid_Search_Task,2020.2.3,Win32,60,,,,,,,,,,,,,,,,,,,,,,,,,,,,,,,,,,,,,,,,,,,,,,,,,,,,,,,,,,,,,,,,,,,,,,,,,,,,,,,,,,,,,,,,0,5,5,5,1,StimList/crustacea.xls,,,,,,,,,,,,,,,,,,,,,,,,,,,,,,,,,,,,,,,,,,,,,,,,,,,,,,,,,,,,,,,,,,,,,,,
,,,,,,,,5e459f9ae4317f085cc0af2d,26,M,R,2020-09-07_16h59.45.163,Hybrid_Search_Task,2020.2.3,Win32,60,,,,,,,,,,,,,,,,,,,,,,,,,,,,,,,,,,,,,,,,,,,,,,,,,,,,,,,,,,,,,,,,,,,,,,,,,,,,,,,,0,0,0,9,1,Animals,turtle,Stimuli/Animals/turtle/turtle_10.jpg,,,,,,,,,,,,,,,,,,,,,,,,,,,,,,,,,,,,,,,,,,,,,,,,,,,,,,,,,,,,,,,,,,,,,,,,,,,,,
,,,,,,,,5e459f9ae4317f085cc0af2d,26,M,R,2020-09-07_16h59.45.163,Hybrid_Search_Task,2020.2.3,Win32,60,,,,,,,,,,,,,,,,,,,,,,,,,,,,,,,,,,,,,,,,,,,,,,,,,,,,,,,,,,,,,,,,,,,,,,,,,,,,,,,,0,1,1,16,1,Animals,turtle,Stimuli/Animals/turtle/turtle_17.jpg,,,,,,,,,,,,,,,,,,,,,,,,,,,,,,,,,,,,,,,,,,,,,,,,,,,,,,,,,,,,,,,,,,,,,,,,,,,,,
,,,,,,,,5e459f9ae4317f085cc0af2d,26,M,R,2020-09-07_16h59.45.163,Hybrid_Search_Task,2020.2.3,Win32,60,,,,,,,,,,,,,,,,,,,,,,,,,,,,,,,,,,,,,,,,,,,,,,,,,,,,,,,,,,,,,,,,,,,,,,,,,,,,,,,,0,2,2,11,1,Animals,turtle,Stimuli/Animals/turtle/turtle_12.jpg,,,,,,,,,,,,,,,,,,,,,,,,,,,,,,,,,,,,,,,,,,,,,,,,,,,,,,,,,,,,,,,,,,,,,,,,,,,,,
,,,,,,,,5e459f9ae4317f085cc0af2d,26,M,R,2020-09-07_16h59.45.163,Hybrid_Search_Task,2020.2.3,Win32,60,,,,,,,,,,,,,,,,,,,,,,,,,,,,,,,,,,,,,,,,,,,,,,,,,,,,,,,,,,,,,,,,,,,,,,,,,,,,,,,,0,3,3,1,1,Animals,turtle,Stimuli/Animals/turtle/turtle_02.jpg,,,,,,,,,,,,,,,,,,,,,,,,,,,,,,,,,,,,,,,,,,,,,,,,,,,,,,,,,,,,,,,,,,,,,,,,,,,,,
,,,,,,,,5e459f9ae4317f085cc0af2d,26,M,R,2020-09-07_16h59.45.163,Hybrid_Search_Task,2020.2.3,Win32,60,,,,,,,,,,,,,,,,,,,,,,,,,,,,,,,,,,,,,,,,,,,,,,,,,,,,,,,,,,,,,,,,,,,,,,,,,,,,,,,,0,4,4,5,1,Animals,turtle,Stimuli/Animals/turtle/turtle_06.jpg,,,,,,,,,,,,,,,,,,,,,,,,,,,,,,,,,,,,,,,,,,,,,,,,,,,,,,,,,,,,,,,,,,,,,,,,,,,,,
,,,,,,,,5e459f9ae4317f085cc0af2d,26,M,R,2020-09-07_16h59.45.163,Hybrid_Search_Task,2020.2.3,Win32,60,,,,,,,,,,,,,,,,,,,,,,,,,,,,,,,,,,,,,,,,,,,,,,,,,,,,,,,,,,,,,,,,,,,,,,,,,,,,,,,,0,5,5,10,1,Animals,turtle,Stimuli/Animals/turtle/turtle_11.jpg,,,,,,,,,,,,,,,,,,,,,,,,,,,,,,,,,,,,,,,,,,,,,,,,,,,,,,,,,,,,,,,,,,,,,,,,,,,,,
,,,,,,,,5e459f9ae4317f085cc0af2d,26,M,R,2020-09-07_16h59.45.163,Hybrid_Search_Task,2020.2.3,Win32,60,,,,,,,,,,,,,,,,,,,,,,,,,,,,,,,,,,,,,,,,,,,,,,,,,,,,,,,,,,,,,,,,,,,,,,,,,,,,,,,,0,6,6,7,1,Animals,turtle,Stimuli/Animals/turtle/turtle_08.jpg,,,,,,,,,,,,,,,,,,,,,,,,,,,,,,,,,,,,,,,,,,,,,,,,,,,,,,,,,,,,,,,,,,,,,,,,,,,,,
,,,,,,,,5e459f9ae4317f085cc0af2d,26,M,R,2020-09-07_16h59.45.163,Hybrid_Search_Task,2020.2.3,Win32,60,,,,,,,,,,,,,,,,,,,,,,,,,,,,,,,,,,,,,,,,,,,,,,,,,,,,,,,,,,,,,,,,,,,,,,,,,,,,,,,,0,7,7,15,1,Animals,turtle,Stimuli/Animals/turtle/turtle_16.jpg,,,,,,,,,,,,,,,,,,,,,,,,,,,,,,,,,,,,,,,,,,,,,,,,,,,,,,,,,,,,,,,,,,,,,,,,,,,,,
,,,,,,,,5e459f9ae4317f085cc0af2d,26,M,R,2020-09-07_16h59.45.163,Hybrid_Search_Task,2020.2.3,Win32,60,,,,,,,,,,,,,,,,,,,,,,,,,,,,,,,,,,,,,,,,,,,,,,,,,,,,,,,,,,,,,,,,,,,,,,,,,,,,,,,,0,8,8,2,1,Animals,turtle,Stimuli/Animals/turtle/turtle_03.jpg,,,,,,,,,,,,,,,,,,,,,,,,,,,,,,,,,,,,,,,,,,,,,,,,,,,,,,,,,,,,,,,,,,,,,,,,,,,,,
,,,,,,,,5e459f9ae4317f085cc0af2d,26,M,R,2020-09-07_16h59.45.163,Hybrid_Search_Task,2020.2.3,Win32,60,,,,,,,,,,,,,,,,,,,,,,,,,,,,,,,,,,,,,,,,,,,,,,,,,,,,,,,,,,,,,,,,,,,,,,,,,,,,,,,,0,9,9,13,1,Animals,turtle,Stimuli/Animals/turtle/turtle_14.jpg,,,,,,,,,,,,,,,,,,,,,,,,,,,,,,,,,,,,,,,,,,,,,,,,,,,,,,,,,,,,,,,,,,,,,,,,,,,,,
,,,,,,,,5e459f9ae4317f085cc0af2d,26,M,R,2020-09-07_16h59.45.163,Hybrid_Search_Task,2020.2.3,Win32,60,,,,,,,,,,,,,,,,,,,,,,,,,,,,,,,,,,,,,,,,,,,,,,,,,,,,,,,,,,,,,,,,,,,,,,,,,,,,,,,,0,10,10,14,1,Animals,turtle,Stimuli/Animals/turtle/turtle_15.jpg,,,,,,,,,,,,,,,,,,,,,,,,,,,,,,,,,,,,,,,,,,,,,,,,,,,,,,,,,,,,,,,,,,,,,,,,,,,,,
,,,,,,,,5e459f9ae4317f085cc0af2d,26,M,R,2020-09-07_16h59.45.163,Hybrid_Search_Task,2020.2.3,Win32,60,,,,,,,,,,,,,,,,,,,,,,,,,,,,,,,,,,,,,,,,,,,,,,,,,,,,,,,,,,,,,,,,,,,,,,,,,,,,,,,,0,11,11,3,1,Animals,turtle,Stimuli/Animals/turtle/turtle_04.jpg,,,,,,,,,,,,,,,,,,,,,,,,,,,,,,,,,,,,,,,,,,,,,,,,,,,,,,,,,,,,,,,,,,,,,,,,,,,,,
,,,,,,,,5e459f9ae4317f085cc0af2d,26,M,R,2020-09-07_16h59.45.163,Hybrid_Search_Task,2020.2.3,Win32,60,,,,,,,,,,,,,,,,,,,,,,,,,,,,,,,,,,,,,,,,,,,,,,,,,,,,,,,,,,,,,,,,,,,,,,,,,,,,,,,,0,12,12,6,1,Animals,turtle,Stimuli/Animals/turtle/turtle_07.jpg,,,,,,,,,,,,,,,,,,,,,,,,,,,,,,,,,,,,,,,,,,,,,,,,,,,,,,,,,,,,,,,,,,,,,,,,,,,,,
,,,,,,,,5e459f9ae4317f085cc0af2d,26,M,R,2020-09-07_16h59.45.163,Hybrid_Search_Task,2020.2.3,Win32,60,,,,,,,,,,,,,,,,,,,,,,,,,,,,,,,,,,,,,,,,,,,,,,,,,,,,,,,,,,,,,,,,,,,,,,,,,,,,,,,,0,13,13,0,1,Animals,turtle,Stimuli/Animals/turtle/turtle_01.jpg,,,,,,,,,,,,,,,,,,,,,,,,,,,,,,,,,,,,,,,,,,,,,,,,,,,,,,,,,,,,,,,,,,,,,,,,,,,,,
,,,,,,,,5e459f9ae4317f085cc0af2d,26,M,R,2020-09-07_16h59.45.163,Hybrid_Search_Task,2020.2.3,Win32,60,,,,,,,,,,,,,,,,,,,,,,,,,,,,,,,,,,,,,,,,,,,,,,,,,,,,,,,,,,,,,,,,,,,,,,,,,,,,,,,,0,14,14,4,1,Animals,turtle,Stimuli/Animals/turtle/turtle_05.jpg,,,,,,,,,,,,,,,,,,,,,,,,,,,,,,,,,,,,,,,,,,,,,,,,,,,,,,,,,,,,,,,,,,,,,,,,,,,,,
,,,,,,,,5e459f9ae4317f085cc0af2d,26,M,R,2020-09-07_16h59.45.163,Hybrid_Search_Task,2020.2.3,Win32,60,,,,,,,,,,,,,,,,,,,,,,,,,,,,,,,,,,,,,,,,,,,,,,,,,,,,,,,,,,,,,,,,,,,,,,,,,,,,,,,,0,15,15,12,1,Animals,turtle,Stimuli/Animals/turtle/turtle_13.jpg,,,,,,,,,,,,,,,,,,,,,,,,,,,,,,,,,,,,,,,,,,,,,,,,,,,,,,,,,,,,,,,,,,,,,,,,,,,,,
,,,,,,,,5e459f9ae4317f085cc0af2d,26,M,R,2020-09-07_16h59.45.163,Hybrid_Search_Task,2020.2.3,Win32,60,,,,,,,,,,,,,,,,,,,,,,,,,,,,,,,,,,,,,,,,,,,,,,,,,,,,,,,,,,,,,,,,,,,,,,,,,,,,,,,,0,16,16,8,1,Animals,turtle,Stimuli/Animals/turtle/turtle_09.jpg,,,,,,,,,,,,,,,,,,,,,,,,,,,,,,,,,,,,,,,,,,,,,,,,,,,,,,,,,,,,,,,,,,,,,,,,,,,,,
,,,,,,,,5e459f9ae4317f085cc0af2d,26,M,R,2020-09-07_16h59.45.163,Hybrid_Search_Task,2020.2.3,Win32,60,,,,,,,,,,,,,,,,,,,,,,,,,,,,,,,,,,,,,,,,,,,,,,,,,,,,,,,,,,,,,,,,,,,,,,,,,,,,,,,,,,,,,,,,0,6,6,28,1,StimList/turtle.xls,,,,,,,,,,,,,,,,,,,,,,,,,,,,,,,,,,,,,,,,,,,,,,,,,,,,,,,,,,,,,,,,,,,,,,,
,,,,,,,,5e459f9ae4317f085cc0af2d,26,M,R,2020-09-07_16h59.45.163,Hybrid_Search_Task,2020.2.3,Win32,60,,,,,,,,,,,,,,,,,,,,,,,,,,,,,,,,,,,,,,,,,,,,,,,,,,,,,,,,,,,,,,,,,,,,,,,,,,,,,,,,0,0,0,13,1,Animals,cat,Stimuli/Animals/cat/cat_14.jpg,,,,,,,,,,,,,,,,,,,,,,,,,,,,,,,,,,,,,,,,,,,,,,,,,,,,,,,,,,,,,,,,,,,,,,,,,,,,,
,,,,,,,,5e459f9ae4317f085cc0af2d,26,M,R,2020-09-07_16h59.45.163,Hybrid_Search_Task,2020.2.3,Win32,60,,,,,,,,,,,,,,,,,,,,,,,,,,,,,,,,,,,,,,,,,,,,,,,,,,,,,,,,,,,,,,,,,,,,,,,,,,,,,,,,0,1,1,2,1,Animals,cat,Stimuli/Animals/cat/cat_03.jpg,,,,,,,,,,,,,,,,,,,,,,,,,,,,,,,,,,,,,,,,,,,,,,,,,,,,,,,,,,,,,,,,,,,,,,,,,,,,,
,,,,,,,,5e459f9ae4317f085cc0af2d,26,M,R,2020-09-07_16h59.45.163,Hybrid_Search_Task,2020.2.3,Win32,60,,,,,,,,,,,,,,,,,,,,,,,,,,,,,,,,,,,,,,,,,,,,,,,,,,,,,,,,,,,,,,,,,,,,,,,,,,,,,,,,0,2,2,11,1,Animals,cat,Stimuli/Animals/cat/cat_12.jpg,,,,,,,,,,,,,,,,,,,,,,,,,,,,,,,,,,,,,,,,,,,,,,,,,,,,,,,,,,,,,,,,,,,,,,,,,,,,,
,,,,,,,,5e459f9ae4317f085cc0af2d,26,M,R,2020-09-07_16h59.45.163,Hybrid_Search_Task,2020.2.3,Win32,60,,,,,,,,,,,,,,,,,,,,,,,,,,,,,,,,,,,,,,,,,,,,,,,,,,,,,,,,,,,,,,,,,,,,,,,,,,,,,,,,0,3,3,1,1,Animals,cat,Stimuli/Animals/cat/cat_02.jpg,,,,,,,,,,,,,,,,,,,,,,,,,,,,,,,,,,,,,,,,,,,,,,,,,,,,,,,,,,,,,,,,,,,,,,,,,,,,,
,,,,,,,,5e459f9ae4317f085cc0af2d,26,M,R,2020-09-07_16h59.45.163,Hybrid_Search_Task,2020.2.3,Win32,60,,,,,,,,,,,,,,,,,,,,,,,,,,,,,,,,,,,,,,,,,,,,,,,,,,,,,,,,,,,,,,,,,,,,,,,,,,,,,,,,0,4,4,3,1,Animals,cat,Stimuli/Animals/cat/cat_04.jpg,,,,,,,,,,,,,,,,,,,,,,,,,,,,,,,,,,,,,,,,,,,,,,,,,,,,,,,,,,,,,,,,,,,,,,,,,,,,,
,,,,,,,,5e459f9ae4317f085cc0af2d,26,M,R,2020-09-07_16h59.45.163,Hybrid_Search_Task,2020.2.3,Win32,60,,,,,,,,,,,,,,,,,,,,,,,,,,,,,,,,,,,,,,,,,,,,,,,,,,,,,,,,,,,,,,,,,,,,,,,,,,,,,,,,0,5,5,14,1,Animals,cat,Stimuli/Animals/cat/cat_15.jpg,,,,,,,,,,,,,,,,,,,,,,,,,,,,,,,,,,,,,,,,,,,,,,,,,,,,,,,,,,,,,,,,,,,,,,,,,,,,,
,,,,,,,,5e459f9ae4317f085cc0af2d,26,M,R,2020-09-07_16h59.45.163,Hybrid_Search_Task,2020.2.3,Win32,60,,,,,,,,,,,,,,,,,,,,,,,,,,,,,,,,,,,,,,,,,,,,,,,,,,,,,,,,,,,,,,,,,,,,,,,,,,,,,,,,0,6,6,8,1,Animals,cat,Stimuli/Animals/cat/cat_09.jpg,,,,,,,,,,,,,,,,,,,,,,,,,,,,,,,,,,,,,,,,,,,,,,,,,,,,,,,,,,,,,,,,,,,,,,,,,,,,,
,,,,,,,,5e459f9ae4317f085cc0af2d,26,M,R,2020-09-07_16h59.45.163,Hybrid_Search_Task,2020.2.3,Win32,60,,,,,,,,,,,,,,,,,,,,,,,,,,,,,,,,,,,,,,,,,,,,,,,,,,,,,,,,,,,,,,,,,,,,,,,,,,,,,,,,0,7,7,10,1,Animals,cat,Stimuli/Animals/cat/cat_11.jpg,,,,,,,,,,,,,,,,,,,,,,,,,,,,,,,,,,,,,,,,,,,,,,,,,,,,,,,,,,,,,,,,,,,,,,,,,,,,,
,,,,,,,,5e459f9ae4317f085cc0af2d,26,M,R,2020-09-07_16h59.45.163,Hybrid_Search_Task,2020.2.3,Win32,60,,,,,,,,,,,,,,,,,,,,,,,,,,,,,,,,,,,,,,,,,,,,,,,,,,,,,,,,,,,,,,,,,,,,,,,,,,,,,,,,0,8,8,6,1,Animals,cat,Stimuli/Animals/cat/cat_07.jpg,,,,,,,,,,,,,,,,,,,,,,,,,,,,,,,,,,,,,,,,,,,,,,,,,,,,,,,,,,,,,,,,,,,,,,,,,,,,,
,,,,,,,,5e459f9ae4317f085cc0af2d,26,M,R,2020-09-07_16h59.45.163,Hybrid_Search_Task,2020.2.3,Win32,60,,,,,,,,,,,,,,,,,,,,,,,,,,,,,,,,,,,,,,,,,,,,,,,,,,,,,,,,,,,,,,,,,,,,,,,,,,,,,,,,0,9,9,0,1,Animals,cat,Stimuli/Animals/cat/cat_01.jpg,,,,,,,,,,,,,,,,,,,,,,,,,,,,,,,,,,,,,,,,,,,,,,,,,,,,,,,,,,,,,,,,,,,,,,,,,,,,,
,,,,,,,,5e459f9ae4317f085cc0af2d,26,M,R,2020-09-07_16h59.45.163,Hybrid_Search_Task,2020.2.3,Win32,60,,,,,,,,,,,,,,,,,,,,,,,,,,,,,,,,,,,,,,,,,,,,,,,,,,,,,,,,,,,,,,,,,,,,,,,,,,,,,,,,0,10,10,15,1,Animals,cat,Stimuli/Animals/cat/cat_16.jpg,,,,,,,,,,,,,,,,,,,,,,,,,,,,,,,,,,,,,,,,,,,,,,,,,,,,,,,,,,,,,,,,,,,,,,,,,,,,,
,,,,,,,,5e459f9ae4317f085cc0af2d,26,M,R,2020-09-07_16h59.45.163,Hybrid_Search_Task,2020.2.3,Win32,60,,,,,,,,,,,,,,,,,,,,,,,,,,,,,,,,,,,,,,,,,,,,,,,,,,,,,,,,,,,,,,,,,,,,,,,,,,,,,,,,0,11,11,16,1,Animals,cat,Stimuli/Animals/cat/cat_17.jpg,,,,,,,,,,,,,,,,,,,,,,,,,,,,,,,,,,,,,,,,,,,,,,,,,,,,,,,,,,,,,,,,,,,,,,,,,,,,,
,,,,,,,,5e459f9ae4317f085cc0af2d,26,M,R,2020-09-07_16h59.45.163,Hybrid_Search_Task,2020.2.3,Win32,60,,,,,,,,,,,,,,,,,,,,,,,,,,,,,,,,,,,,,,,,,,,,,,,,,,,,,,,,,,,,,,,,,,,,,,,,,,,,,,,,0,12,12,7,1,Animals,cat,Stimuli/Animals/cat/cat_08.jpg,,,,,,,,,,,,,,,,,,,,,,,,,,,,,,,,,,,,,,,,,,,,,,,,,,,,,,,,,,,,,,,,,,,,,,,,,,,,,
,,,,,,,,5e459f9ae4317f085cc0af2d,26,M,R,2020-09-07_16h59.45.163,Hybrid_Search_Task,2020.2.3,Win32,60,,,,,,,,,,,,,,,,,,,,,,,,,,,,,,,,,,,,,,,,,,,,,,,,,,,,,,,,,,,,,,,,,,,,,,,,,,,,,,,,0,13,13,4,1,Animals,cat,Stimuli/Animals/cat/cat_05.jpg,,,,,,,,,,,,,,,,,,,,,,,,,,,,,,,,,,,,,,,,,,,,,,,,,,,,,,,,,,,,,,,,,,,,,,,,,,,,,
,,,,,,,,5e459f9ae4317f085cc0af2d,26,M,R,2020-09-07_16h59.45.163,Hybrid_Search_Task,2020.2.3,Win32,60,,,,,,,,,,,,,,,,,,,,,,,,,,,,,,,,,,,,,,,,,,,,,,,,,,,,,,,,,,,,,,,,,,,,,,,,,,,,,,,,0,14,14,5,1,Animals,cat,Stimuli/Animals/cat/cat_06.jpg,,,,,,,,,,,,,,,,,,,,,,,,,,,,,,,,,,,,,,,,,,,,,,,,,,,,,,,,,,,,,,,,,,,,,,,,,,,,,
,,,,,,,,5e459f9ae4317f085cc0af2d,26,M,R,2020-09-07_16h59.45.163,Hybrid_Search_Task,2020.2.3,Win32,60,,,,,,,,,,,,,,,,,,,,,,,,,,,,,,,,,,,,,,,,,,,,,,,,,,,,,,,,,,,,,,,,,,,,,,,,,,,,,,,,0,15,15,12,1,Animals,cat,Stimuli/Animals/cat/cat_13.jpg,,,,,,,,,,,,,,,,,,,,,,,,,,,,,,,,,,,,,,,,,,,,,,,,,,,,,,,,,,,,,,,,,,,,,,,,,,,,,
,,,,,,,,5e459f9ae4317f085cc0af2d,26,M,R,2020-09-07_16h59.45.163,Hybrid_Search_Task,2020.2.3,Win32,60,,,,,,,,,,,,,,,,,,,,,,,,,,,,,,,,,,,,,,,,,,,,,,,,,,,,,,,,,,,,,,,,,,,,,,,,,,,,,,,,0,16,16,9,1,Animals,cat,Stimuli/Animals/cat/cat_10.jpg,,,,,,,,,,,,,,,,,,,,,,,,,,,,,,,,,,,,,,,,,,,,,,,,,,,,,,,,,,,,,,,,,,,,,,,,,,,,,
,,,,,,,,5e459f9ae4317f085cc0af2d,26,M,R,2020-09-07_16h59.45.163,Hybrid_Search_Task,2020.2.3,Win32,60,,,,,,,,,,,,,,,,,,,,,,,,,,,,,,,,,,,,,,,,,,,,,,,,,,,,,,,,,,,,,,,,,,,,,,,,,,,,,,,,,,,,,,,,0,7,7,3,1,StimList/cat.xls,,,,,,,,,,,,,,,,,,,,,,,,,,,,,,,,,,,,,,,,,,,,,,,,,,,,,,,,,,,,,,,,,,,,,,,
,,,,,,,,5e459f9ae4317f085cc0af2d,26,M,R,2020-09-07_16h59.45.163,Hybrid_Search_Task,2020.2.3,Win32,60,,,,,,,,,,,,,,,,,,,,,,,,,,,,,,,,,,,,,,,,,,,,,,,,,,,,,,,,,,,,,,,,,,,,,,,,,,,,,,,,0,0,0,9,1,Animals,procyon_civet,Stimuli/Animals/procyon_civet/procyon_10.jpg,,,,,,,,,,,,,,,,,,,,,,,,,,,,,,,,,,,,,,,,,,,,,,,,,,,,,,,,,,,,,,,,,,,,,,,,,,,,,
,,,,,,,,5e459f9ae4317f085cc0af2d,26,M,R,2020-09-07_16h59.45.163,Hybrid_Search_Task,2020.2.3,Win32,60,,,,,,,,,,,,,,,,,,,,,,,,,,,,,,,,,,,,,,,,,,,,,,,,,,,,,,,,,,,,,,,,,,,,,,,,,,,,,,,,0,1,1,16,1,Animals,procyon_civet,Stimuli/Animals/procyon_civet/procyon_17.jpg,,,,,,,,,,,,,,,,,,,,,,,,,,,,,,,,,,,,,,,,,,,,,,,,,,,,,,,,,,,,,,,,,,,,,,,,,,,,,
,,,,,,,,5e459f9ae4317f085cc0af2d,26,M,R,2020-09-07_16h59.45.163,Hybrid_Search_Task,2020.2.3,Win32,60,,,,,,,,,,,,,,,,,,,,,,,,,,,,,,,,,,,,,,,,,,,,,,,,,,,,,,,,,,,,,,,,,,,,,,,,,,,,,,,,0,2,2,4,1,Animals,procyon_civet,Stimuli/Animals/procyon_civet/procyon_05.jpg,,,,,,,,,,,,,,,,,,,,,,,,,,,,,,,,,,,,,,,,,,,,,,,,,,,,,,,,,,,,,,,,,,,,,,,,,,,,,
,,,,,,,,5e459f9ae4317f085cc0af2d,26,M,R,2020-09-07_16h59.45.163,Hybrid_Search_Task,2020.2.3,Win32,60,,,,,,,,,,,,,,,,,,,,,,,,,,,,,,,,,,,,,,,,,,,,,,,,,,,,,,,,,,,,,,,,,,,,,,,,,,,,,,,,0,3,3,13,1,Animals,procyon_civet,Stimuli/Animals/procyon_civet/procyon_14.jpg,,,,,,,,,,,,,,,,,,,,,,,,,,,,,,,,,,,,,,,,,,,,,,,,,,,,,,,,,,,,,,,,,,,,,,,,,,,,,
,,,,,,,,5e459f9ae4317f085cc0af2d,26,M,R,2020-09-07_16h59.45.163,Hybrid_Search_Task,2020.2.3,Win32,60,,,,,,,,,,,,,,,,,,,,,,,,,,,,,,,,,,,,,,,,,,,,,,,,,,,,,,,,,,,,,,,,,,,,,,,,,,,,,,,,0,4,4,8,1,Animals,procyon_civet,Stimuli/Animals/procyon_civet/procyon_09.jpg,,,,,,,,,,,,,,,,,,,,,,,,,,,,,,,,,,,,,,,,,,,,,,,,,,,,,,,,,,,,,,,,,,,,,,,,,,,,,
,,,,,,,,5e459f9ae4317f085cc0af2d,26,M,R,2020-09-07_16h59.45.163,Hybrid_Search_Task,2020.2.3,Win32,60,,,,,,,,,,,,,,,,,,,,,,,,,,,,,,,,,,,,,,,,,,,,,,,,,,,,,,,,,,,,,,,,,,,,,,,,,,,,,,,,0,5,5,15,1,Animals,procyon_civet,Stimuli/Animals/procyon_civet/procyon_16.jpg,,,,,,,,,,,,,,,,,,,,,,,,,,,,,,,,,,,,,,,,,,,,,,,,,,,,,,,,,,,,,,,,,,,,,,,,,,,,,
,,,,,,,,5e459f9ae4317f085cc0af2d,26,M,R,2020-09-07_16h59.45.163,Hybrid_Search_Task,2020.2.3,Win32,60,,,,,,,,,,,,,,,,,,,,,,,,,,,,,,,,,,,,,,,,,,,,,,,,,,,,,,,,,,,,,,,,,,,,,,,,,,,,,,,,0,6,6,0,1,Animals,procyon_civet,Stimuli/Animals/procyon_civet/procyon_01.jpg,,,,,,,,,,,,,,,,,,,,,,,,,,,,,,,,,,,,,,,,,,,,,,,,,,,,,,,,,,,,,,,,,,,,,,,,,,,,,
,,,,,,,,5e459f9ae4317f085cc0af2d,26,M,R,2020-09-07_16h59.45.163,Hybrid_Search_Task,2020.2.3,Win32,60,,,,,,,,,,,,,,,,,,,,,,,,,,,,,,,,,,,,,,,,,,,,,,,,,,,,,,,,,,,,,,,,,,,,,,,,,,,,,,,,0,7,7,14,1,Animals,procyon_civet,Stimuli/Animals/procyon_civet/procyon_15.jpg,,,,,,,,,,,,,,,,,,,,,,,,,,,,,,,,,,,,,,,,,,,,,,,,,,,,,,,,,,,,,,,,,,,,,,,,,,,,,
,,,,,,,,5e459f9ae4317f085cc0af2d,26,M,R,2020-09-07_16h59.45.163,Hybrid_Search_Task,2020.2.3,Win32,60,,,,,,,,,,,,,,,,,,,,,,,,,,,,,,,,,,,,,,,,,,,,,,,,,,,,,,,,,,,,,,,,,,,,,,,,,,,,,,,,0,8,8,3,1,Animals,procyon_civet,Stimuli/Animals/procyon_civet/procyon_04.jpg,,,,,,,,,,,,,,,,,,,,,,,,,,,,,,,,,,,,,,,,,,,,,,,,,,,,,,,,,,,,,,,,,,,,,,,,,,,,,
,,,,,,,,5e459f9ae4317f085cc0af2d,26,M,R,2020-09-07_16h59.45.163,Hybrid_Search_Task,2020.2.3,Win32,60,,,,,,,,,,,,,,,,,,,,,,,,,,,,,,,,,,,,,,,,,,,,,,,,,,,,,,,,,,,,,,,,,,,,,,,,,,,,,,,,0,9,9,11,1,Animals,procyon_civet,Stimuli/Animals/procyon_civet/procyon_12.jpg,,,,,,,,,,,,,,,,,,,,,,,,,,,,,,,,,,,,,,,,,,,,,,,,,,,,,,,,,,,,,,,,,,,,,,,,,,,,,
,,,,,,,,5e459f9ae4317f085cc0af2d,26,M,R,2020-09-07_16h59.45.163,Hybrid_Search_Task,2020.2.3,Win32,60,,,,,,,,,,,,,,,,,,,,,,,,,,,,,,,,,,,,,,,,,,,,,,,,,,,,,,,,,,,,,,,,,,,,,,,,,,,,,,,,0,10,10,5,1,Animals,procyon_civet,Stimuli/Animals/procyon_civet/procyon_06.jpg,,,,,,,,,,,,,,,,,,,,,,,,,,,,,,,,,,,,,,,,,,,,,,,,,,,,,,,,,,,,,,,,,,,,,,,,,,,,,
,,,,,,,,5e459f9ae4317f085cc0af2d,26,M,R,2020-09-07_16h59.45.163,Hybrid_Search_Task,2020.2.3,Win32,60,,,,,,,,,,,,,,,,,,,,,,,,,,,,,,,,,,,,,,,,,,,,,,,,,,,,,,,,,,,,,,,,,,,,,,,,,,,,,,,,0,11,11,2,1,Animals,procyon_civet,Stimuli/Animals/procyon_civet/procyon_03.jpg,,,,,,,,,,,,,,,,,,,,,,,,,,,,,,,,,,,,,,,,,,,,,,,,,,,,,,,,,,,,,,,,,,,,,,,,,,,,,
,,,,,,,,5e459f9ae4317f085cc0af2d,26,M,R,2020-09-07_16h59.45.163,Hybrid_Search_Task,2020.2.3,Win32,60,,,,,,,,,,,,,,,,,,,,,,,,,,,,,,,,,,,,,,,,,,,,,,,,,,,,,,,,,,,,,,,,,,,,,,,,,,,,,,,,0,12,12,1,1,Animals,procyon_civet,Stimuli/Animals/procyon_civet/procyon_02.jpg,,,,,,,,,,,,,,,,,,,,,,,,,,,,,,,,,,,,,,,,,,,,,,,,,,,,,,,,,,,,,,,,,,,,,,,,,,,,,
,,,,,,,,5e459f9ae4317f085cc0af2d,26,M,R,2020-09-07_16h59.45.163,Hybrid_Search_Task,2020.2.3,Win32,60,,,,,,,,,,,,,,,,,,,,,,,,,,,,,,,,,,,,,,,,,,,,,,,,,,,,,,,,,,,,,,,,,,,,,,,,,,,,,,,,0,13,13,6,1,Animals,procyon_civet,Stimuli/Animals/procyon_civet/procyon_07.jpg,,,,,,,,,,,,,,,,,,,,,,,,,,,,,,,,,,,,,,,,,,,,,,,,,,,,,,,,,,,,,,,,,,,,,,,,,,,,,
,,,,,,,,5e459f9ae4317f085cc0af2d,26,M,R,2020-09-07_16h59.45.163,Hybrid_Search_Task,2020.2.3,Win32,60,,,,,,,,,,,,,,,,,,,,,,,,,,,,,,,,,,,,,,,,,,,,,,,,,,,,,,,,,,,,,,,,,,,,,,,,,,,,,,,,0,14,14,7,1,Animals,procyon_civet,Stimuli/Animals/procyon_civet/procyon_08.jpg,,,,,,,,,,,,,,,,,,,,,,,,,,,,,,,,,,,,,,,,,,,,,,,,,,,,,,,,,,,,,,,,,,,,,,,,,,,,,
,,,,,,,,5e459f9ae4317f085cc0af2d,26,M,R,2020-09-07_16h59.45.163,Hybrid_Search_Task,2020.2.3,Win32,60,,,,,,,,,,,,,,,,,,,,,,,,,,,,,,,,,,,,,,,,,,,,,,,,,,,,,,,,,,,,,,,,,,,,,,,,,,,,,,,,0,15,15,10,1,Animals,procyon_civet,Stimuli/Animals/procyon_civet/procyon_11.jpg,,,,,,,,,,,,,,,,,,,,,,,,,,,,,,,,,,,,,,,,,,,,,,,,,,,,,,,,,,,,,,,,,,,,,,,,,,,,,
,,,,,,,,5e459f9ae4317f085cc0af2d,26,M,R,2020-09-07_16h59.45.163,Hybrid_Search_Task,2020.2.3,Win32,60,,,,,,,,,,,,,,,,,,,,,,,,,,,,,,,,,,,,,,,,,,,,,,,,,,,,,,,,,,,,,,,,,,,,,,,,,,,,,,,,0,16,16,12,1,Animals,procyon_civet,Stimuli/Animals/procyon_civet/procyon_13.jpg,,,,,,,,,,,,,,,,,,,,,,,,,,,,,,,,,,,,,,,,,,,,,,,,,,,,,,,,,,,,,,,,,,,,,,,,,,,,,
,,,,,,,,5e459f9ae4317f085cc0af2d,26,M,R,2020-09-07_16h59.45.163,Hybrid_Search_Task,2020.2.3,Win32,60,,,,,,,,,,,,,,,,,,,,,,,,,,,,,,,,,,,,,,,,,,,,,,,,,,,,,,,,,,,,,,,,,,,,,,,,,,,,,,,,,,,,,,,,0,8,8,20,1,StimList/procyon_civet.xls,,,,,,,,,,,,,,,,,,,,,,,,,,,,,,,,,,,,,,,,,,,,,,,,,,,,,,,,,,,,,,,,,,,,,,,
,,,,,,,,5e459f9ae4317f085cc0af2d,26,M,R,2020-09-07_16h59.45.163,Hybrid_Search_Task,2020.2.3,Win32,60,,,,,,,,,,,,,,,,,,,,,,,,,,,,,,,,,,,,,,,,,,,,,,,,,,,,,,,,,,,,,,,,,,,,,,,,,,,,,,,,0,0,0,12,1,Animals,suiformes,Stimuli/Animals/suiformes/suiformes_13.jpg,,,,,,,,,,,,,,,,,,,,,,,,,,,,,,,,,,,,,,,,,,,,,,,,,,,,,,,,,,,,,,,,,,,,,,,,,,,,,
,,,,,,,,5e459f9ae4317f085cc0af2d,26,M,R,2020-09-07_16h59.45.163,Hybrid_Search_Task,2020.2.3,Win32,60,,,,,,,,,,,,,,,,,,,,,,,,,,,,,,,,,,,,,,,,,,,,,,,,,,,,,,,,,,,,,,,,,,,,,,,,,,,,,,,,0,1,1,16,1,Animals,suiformes,Stimuli/Animals/suiformes/suiformes_17.jpg,,,,,,,,,,,,,,,,,,,,,,,,,,,,,,,,,,,,,,,,,,,,,,,,,,,,,,,,,,,,,,,,,,,,,,,,,,,,,
,,,,,,,,5e459f9ae4317f085cc0af2d,26,M,R,2020-09-07_16h59.45.163,Hybrid_Search_Task,2020.2.3,Win32,60,,,,,,,,,,,,,,,,,,,,,,,,,,,,,,,,,,,,,,,,,,,,,,,,,,,,,,,,,,,,,,,,,,,,,,,,,,,,,,,,0,2,2,1,1,Animals,suiformes,Stimuli/Animals/suiformes/suiformes_02.jpg,,,,,,,,,,,,,,,,,,,,,,,,,,,,,,,,,,,,,,,,,,,,,,,,,,,,,,,,,,,,,,,,,,,,,,,,,,,,,
,,,,,,,,5e459f9ae4317f085cc0af2d,26,M,R,2020-09-07_16h59.45.163,Hybrid_Search_Task,2020.2.3,Win32,60,,,,,,,,,,,,,,,,,,,,,,,,,,,,,,,,,,,,,,,,,,,,,,,,,,,,,,,,,,,,,,,,,,,,,,,,,,,,,,,,0,3,3,3,1,Animals,suiformes,Stimuli/Animals/suiformes/suiformes_04.jpg,,,,,,,,,,,,,,,,,,,,,,,,,,,,,,,,,,,,,,,,,,,,,,,,,,,,,,,,,,,,,,,,,,,,,,,,,,,,,
,,,,,,,,5e459f9ae4317f085cc0af2d,26,M,R,2020-09-07_16h59.45.163,Hybrid_Search_Task,2020.2.3,Win32,60,,,,,,,,,,,,,,,,,,,,,,,,,,,,,,,,,,,,,,,,,,,,,,,,,,,,,,,,,,,,,,,,,,,,,,,,,,,,,,,,0,4,4,0,1,Animals,suiformes,Stimuli/Animals/suiformes/suiformes_01.jpg,,,,,,,,,,,,,,,,,,,,,,,,,,,,,,,,,,,,,,,,,,,,,,,,,,,,,,,,,,,,,,,,,,,,,,,,,,,,,
,,,,,,,,5e459f9ae4317f085cc0af2d,26,M,R,2020-09-07_16h59.45.163,Hybrid_Search_Task,2020.2.3,Win32,60,,,,,,,,,,,,,,,,,,,,,,,,,,,,,,,,,,,,,,,,,,,,,,,,,,,,,,,,,,,,,,,,,,,,,,,,,,,,,,,,0,5,5,5,1,Animals,suiformes,Stimuli/Animals/suiformes/suiformes_06.jpg,,,,,,,,,,,,,,,,,,,,,,,,,,,,,,,,,,,,,,,,,,,,,,,,,,,,,,,,,,,,,,,,,,,,,,,,,,,,,
,,,,,,,,5e459f9ae4317f085cc0af2d,26,M,R,2020-09-07_16h59.45.163,Hybrid_Search_Task,2020.2.3,Win32,60,,,,,,,,,,,,,,,,,,,,,,,,,,,,,,,,,,,,,,,,,,,,,,,,,,,,,,,,,,,,,,,,,,,,,,,,,,,,,,,,0,6,6,15,1,Animals,suiformes,Stimuli/Animals/suiformes/suiformes_16.jpg,,,,,,,,,,,,,,,,,,,,,,,,,,,,,,,,,,,,,,,,,,,,,,,,,,,,,,,,,,,,,,,,,,,,,,,,,,,,,
,,,,,,,,5e459f9ae4317f085cc0af2d,26,M,R,2020-09-07_16h59.45.163,Hybrid_Search_Task,2020.2.3,Win32,60,,,,,,,,,,,,,,,,,,,,,,,,,,,,,,,,,,,,,,,,,,,,,,,,,,,,,,,,,,,,,,,,,,,,,,,,,,,,,,,,0,7,7,10,1,Animals,suiformes,Stimuli/Animals/suiformes/suiformes_11.jpg,,,,,,,,,,,,,,,,,,,,,,,,,,,,,,,,,,,,,,,,,,,,,,,,,,,,,,,,,,,,,,,,,,,,,,,,,,,,,
,,,,,,,,5e459f9ae4317f085cc0af2d,26,M,R,2020-09-07_16h59.45.163,Hybrid_Search_Task,2020.2.3,Win32,60,,,,,,,,,,,,,,,,,,,,,,,,,,,,,,,,,,,,,,,,,,,,,,,,,,,,,,,,,,,,,,,,,,,,,,,,,,,,,,,,0,8,8,6,1,Animals,suiformes,Stimuli/Animals/suiformes/suiformes_07.jpg,,,,,,,,,,,,,,,,,,,,,,,,,,,,,,,,,,,,,,,,,,,,,,,,,,,,,,,,,,,,,,,,,,,,,,,,,,,,,
,,,,,,,,5e459f9ae4317f085cc0af2d,26,M,R,2020-09-07_16h59.45.163,Hybrid_Search_Task,2020.2.3,Win32,60,,,,,,,,,,,,,,,,,,,,,,,,,,,,,,,,,,,,,,,,,,,,,,,,,,,,,,,,,,,,,,,,,,,,,,,,,,,,,,,,0,9,9,2,1,Animals,suiformes,Stimuli/Animals/suiformes/suiformes_03.jpg,,,,,,,,,,,,,,,,,,,,,,,,,,,,,,,,,,,,,,,,,,,,,,,,,,,,,,,,,,,,,,,,,,,,,,,,,,,,,
,,,,,,,,5e459f9ae4317f085cc0af2d,26,M,R,2020-09-07_16h59.45.163,Hybrid_Search_Task,2020.2.3,Win32,60,,,,,,,,,,,,,,,,,,,,,,,,,,,,,,,,,,,,,,,,,,,,,,,,,,,,,,,,,,,,,,,,,,,,,,,,,,,,,,,,0,10,10,8,1,Animals,suiformes,Stimuli/Animals/suiformes/suiformes_09.jpg,,,,,,,,,,,,,,,,,,,,,,,,,,,,,,,,,,,,,,,,,,,,,,,,,,,,,,,,,,,,,,,,,,,,,,,,,,,,,
,,,,,,,,5e459f9ae4317f085cc0af2d,26,M,R,2020-09-07_16h59.45.163,Hybrid_Search_Task,2020.2.3,Win32,60,,,,,,,,,,,,,,,,,,,,,,,,,,,,,,,,,,,,,,,,,,,,,,,,,,,,,,,,,,,,,,,,,,,,,,,,,,,,,,,,0,11,11,9,1,Animals,suiformes,Stimuli/Animals/suiformes/suiformes_10.jpg,,,,,,,,,,,,,,,,,,,,,,,,,,,,,,,,,,,,,,,,,,,,,,,,,,,,,,,,,,,,,,,,,,,,,,,,,,,,,
,,,,,,,,5e459f9ae4317f085cc0af2d,26,M,R,2020-09-07_16h59.45.163,Hybrid_Search_Task,2020.2.3,Win32,60,,,,,,,,,,,,,,,,,,,,,,,,,,,,,,,,,,,,,,,,,,,,,,,,,,,,,,,,,,,,,,,,,,,,,,,,,,,,,,,,0,12,12,4,1,Animals,suiformes,Stimuli/Animals/suiformes/suiformes_05.jpg,,,,,,,,,,,,,,,,,,,,,,,,,,,,,,,,,,,,,,,,,,,,,,,,,,,,,,,,,,,,,,,,,,,,,,,,,,,,,
,,,,,,,,5e459f9ae4317f085cc0af2d,26,M,R,2020-09-07_16h59.45.163,Hybrid_Search_Task,2020.2.3,Win32,60,,,,,,,,,,,,,,,,,,,,,,,,,,,,,,,,,,,,,,,,,,,,,,,,,,,,,,,,,,,,,,,,,,,,,,,,,,,,,,,,0,13,13,7,1,Animals,suiformes,Stimuli/Animals/suiformes/suiformes_08.jpg,,,,,,,,,,,,,,,,,,,,,,,,,,,,,,,,,,,,,,,,,,,,,,,,,,,,,,,,,,,,,,,,,,,,,,,,,,,,,
,,,,,,,,5e459f9ae4317f085cc0af2d,26,M,R,2020-09-07_16h59.45.163,Hybrid_Search_Task,2020.2.3,Win32,60,,,,,,,,,,,,,,,,,,,,,,,,,,,,,,,,,,,,,,,,,,,,,,,,,,,,,,,,,,,,,,,,,,,,,,,,,,,,,,,,0,14,14,11,1,Animals,suiformes,Stimuli/Animals/suiformes/suiformes_12.jpg,,,,,,,,,,,,,,,,,,,,,,,,,,,,,,,,,,,,,,,,,,,,,,,,,,,,,,,,,,,,,,,,,,,,,,,,,,,,,
,,,,,,,,5e459f9ae4317f085cc0af2d,26,M,R,2020-09-07_16h59.45.163,Hybrid_Search_Task,2020.2.3,Win32,60,,,,,,,,,,,,,,,,,,,,,,,,,,,,,,,,,,,,,,,,,,,,,,,,,,,,,,,,,,,,,,,,,,,,,,,,,,,,,,,,0,15,15,13,1,Animals,suiformes,Stimuli/Animals/suiformes/suiformes_14.jpg,,,,,,,,,,,,,,,,,,,,,,,,,,,,,,,,,,,,,,,,,,,,,,,,,,,,,,,,,,,,,,,,,,,,,,,,,,,,,
,,,,,,,,5e459f9ae4317f085cc0af2d,26,M,R,2020-09-07_16h59.45.163,Hybrid_Search_Task,2020.2.3,Win32,60,,,,,,,,,,,,,,,,,,,,,,,,,,,,,,,,,,,,,,,,,,,,,,,,,,,,,,,,,,,,,,,,,,,,,,,,,,,,,,,,0,16,16,14,1,Animals,suiformes,Stimuli/Animals/suiformes/suiformes_15.jpg,,,,,,,,,,,,,,,,,,,,,,,,,,,,,,,,,,,,,,,,,,,,,,,,,,,,,,,,,,,,,,,,,,,,,,,,,,,,,
,,,,,,,,5e459f9ae4317f085cc0af2d,26,M,R,2020-09-07_16h59.45.163,Hybrid_Search_Task,2020.2.3,Win32,60,,,,,,,,,,,,,,,,,,,,,,,,,,,,,,,,,,,,,,,,,,,,,,,,,,,,,,,,,,,,,,,,,,,,,,,,,,,,,,,,,,,,,,,,0,9,9,27,1,StimList/suiformes.xls,,,,,,,,,,,,,,,,,,,,,,,,,,,,,,,,,,,,,,,,,,,,,,,,,,,,,,,,,,,,,,,,,,,,,,,
,,,,,,,,5e459f9ae4317f085cc0af2d,26,M,R,2020-09-07_16h59.45.163,Hybrid_Search_Task,2020.2.3,Win32,60,,,,,,,,,,,,,,,,,,,,,,,,,,,,,,,,,,,,,,,,,,,,,,,,,,,,,,,,,,,,,,,,,,,,,,,,,,,,,,,,0,0,0,6,1,Animals,butterfly,Stimuli/Animals/butterfly/buttenfly_07.jpg,,,,,,,,,,,,,,,,,,,,,,,,,,,,,,,,,,,,,,,,,,,,,,,,,,,,,,,,,,,,,,,,,,,,,,,,,,,,,
,,,,,,,,5e459f9ae4317f085cc0af2d,26,M,R,2020-09-07_16h59.45.163,Hybrid_Search_Task,2020.2.3,Win32,60,,,,,,,,,,,,,,,,,,,,,,,,,,,,,,,,,,,,,,,,,,,,,,,,,,,,,,,,,,,,,,,,,,,,,,,,,,,,,,,,0,1,1,5,1,Animals,butterfly,Stimuli/Animals/butterfly/buttenfly_06.jpg,,,,,,,,,,,,,,,,,,,,,,,,,,,,,,,,,,,,,,,,,,,,,,,,,,,,,,,,,,,,,,,,,,,,,,,,,,,,,
,,,,,,,,5e459f9ae4317f085cc0af2d,26,M,R,2020-09-07_16h59.45.163,Hybrid_Search_Task,2020.2.3,Win32,60,,,,,,,,,,,,,,,,,,,,,,,,,,,,,,,,,,,,,,,,,,,,,,,,,,,,,,,,,,,,,,,,,,,,,,,,,,,,,,,,0,2,2,12,1,Animals,butterfly,Stimuli/Animals/butterfly/buttenfly_13.jpg,,,,,,,,,,,,,,,,,,,,,,,,,,,,,,,,,,,,,,,,,,,,,,,,,,,,,,,,,,,,,,,,,,,,,,,,,,,,,
,,,,,,,,5e459f9ae4317f085cc0af2d,26,M,R,2020-09-07_16h59.45.163,Hybrid_Search_Task,2020.2.3,Win32,60,,,,,,,,,,,,,,,,,,,,,,,,,,,,,,,,,,,,,,,,,,,,,,,,,,,,,,,,,,,,,,,,,,,,,,,,,,,,,,,,0,3,3,7,1,Animals,butterfly,Stimuli/Animals/butterfly/buttenfly_08.jpg,,,,,,,,,,,,,,,,,,,,,,,,,,,,,,,,,,,,,,,,,,,,,,,,,,,,,,,,,,,,,,,,,,,,,,,,,,,,,
,,,,,,,,5e459f9ae4317f085cc0af2d,26,M,R,2020-09-07_16h59.45.163,Hybrid_Search_Task,2020.2.3,Win32,60,,,,,,,,,,,,,,,,,,,,,,,,,,,,,,,,,,,,,,,,,,,,,,,,,,,,,,,,,,,,,,,,,,,,,,,,,,,,,,,,0,4,4,9,1,Animals,butterfly,Stimuli/Animals/butterfly/buttenfly_10.jpg,,,,,,,,,,,,,,,,,,,,,,,,,,,,,,,,,,,,,,,,,,,,,,,,,,,,,,,,,,,,,,,,,,,,,,,,,,,,,
,,,,,,,,5e459f9ae4317f085cc0af2d,26,M,R,2020-09-07_16h59.45.163,Hybrid_Search_Task,2020.2.3,Win32,60,,,,,,,,,,,,,,,,,,,,,,,,,,,,,,,,,,,,,,,,,,,,,,,,,,,,,,,,,,,,,,,,,,,,,,,,,,,,,,,,0,5,5,3,1,Animals,butterfly,Stimuli/Animals/butterfly/buttenfly_04.jpg,,,,,,,,,,,,,,,,,,,,,,,,,,,,,,,,,,,,,,,,,,,,,,,,,,,,,,,,,,,,,,,,,,,,,,,,,,,,,
,,,,,,,,5e459f9ae4317f085cc0af2d,26,M,R,2020-09-07_16h59.45.163,Hybrid_Search_Task,2020.2.3,Win32,60,,,,,,,,,,,,,,,,,,,,,,,,,,,,,,,,,,,,,,,,,,,,,,,,,,,,,,,,,,,,,,,,,,,,,,,,,,,,,,,,0,6,6,2,1,Animals,butterfly,Stimuli/Animals/butterfly/buttenfly_03.jpg,,,,,,,,,,,,,,,,,,,,,,,,,,,,,,,,,,,,,,,,,,,,,,,,,,,,,,,,,,,,,,,,,,,,,,,,,,,,,
,,,,,,,,5e459f9ae4317f085cc0af2d,26,M,R,2020-09-07_16h59.45.163,Hybrid_Search_Task,2020.2.3,Win32,60,,,,,,,,,,,,,,,,,,,,,,,,,,,,,,,,,,,,,,,,,,,,,,,,,,,,,,,,,,,,,,,,,,,,,,,,,,,,,,,,0,7,7,1,1,Animals,butterfly,Stimuli/Animals/butterfly/buttenfly_02.jpg,,,,,,,,,,,,,,,,,,,,,,,,,,,,,,,,,,,,,,,,,,,,,,,,,,,,,,,,,,,,,,,,,,,,,,,,,,,,,
,,,,,,,,5e459f9ae4317f085cc0af2d,26,M,R,2020-09-07_16h59.45.163,Hybrid_Search_Task,2020.2.3,Win32,60,,,,,,,,,,,,,,,,,,,,,,,,,,,,,,,,,,,,,,,,,,,,,,,,,,,,,,,,,,,,,,,,,,,,,,,,,,,,,,,,0,8,8,11,1,Animals,butterfly,Stimuli/Animals/butterfly/buttenfly_12.jpg,,,,,,,,,,,,,,,,,,,,,,,,,,,,,,,,,,,,,,,,,,,,,,,,,,,,,,,,,,,,,,,,,,,,,,,,,,,,,
,,,,,,,,5e459f9ae4317f085cc0af2d,26,M,R,2020-09-07_16h59.45.163,Hybrid_Search_Task,2020.2.3,Win32,60,,,,,,,,,,,,,,,,,,,,,,,,,,,,,,,,,,,,,,,,,,,,,,,,,,,,,,,,,,,,,,,,,,,,,,,,,,,,,,,,0,9,9,14,1,Animals,butterfly,Stimuli/Animals/butterfly/buttenfly_15.jpg,,,,,,,,,,,,,,,,,,,,,,,,,,,,,,,,,,,,,,,,,,,,,,,,,,,,,,,,,,,,,,,,,,,,,,,,,,,,,
,,,,,,,,5e459f9ae4317f085cc0af2d,26,M,R,2020-09-07_16h59.45.163,Hybrid_Search_Task,2020.2.3,Win32,60,,,,,,,,,,,,,,,,,,,,,,,,,,,,,,,,,,,,,,,,,,,,,,,,,,,,,,,,,,,,,,,,,,,,,,,,,,,,,,,,0,10,10,4,1,Animals,butterfly,Stimuli/Animals/butterfly/buttenfly_05.jpg,,,,,,,,,,,,,,,,,,,,,,,,,,,,,,,,,,,,,,,,,,,,,,,,,,,,,,,,,,,,,,,,,,,,,,,,,,,,,
,,,,,,,,5e459f9ae4317f085cc0af2d,26,M,R,2020-09-07_16h59.45.163,Hybrid_Search_Task,2020.2.3,Win32,60,,,,,,,,,,,,,,,,,,,,,,,,,,,,,,,,,,,,,,,,,,,,,,,,,,,,,,,,,,,,,,,,,,,,,,,,,,,,,,,,0,11,11,16,1,Animals,butterfly,Stimuli/Animals/butterfly/buttenfly_17.jpg,,,,,,,,,,,,,,,,,,,,,,,,,,,,,,,,,,,,,,,,,,,,,,,,,,,,,,,,,,,,,,,,,,,,,,,,,,,,,
,,,,,,,,5e459f9ae4317f085cc0af2d,26,M,R,2020-09-07_16h59.45.163,Hybrid_Search_Task,2020.2.3,Win32,60,,,,,,,,,,,,,,,,,,,,,,,,,,,,,,,,,,,,,,,,,,,,,,,,,,,,,,,,,,,,,,,,,,,,,,,,,,,,,,,,0,12,12,15,1,Animals,butterfly,Stimuli/Animals/butterfly/buttenfly_16.jpg,,,,,,,,,,,,,,,,,,,,,,,,,,,,,,,,,,,,,,,,,,,,,,,,,,,,,,,,,,,,,,,,,,,,,,,,,,,,,
,,,,,,,,5e459f9ae4317f085cc0af2d,26,M,R,2020-09-07_16h59.45.163,Hybrid_Search_Task,2020.2.3,Win32,60,,,,,,,,,,,,,,,,,,,,,,,,,,,,,,,,,,,,,,,,,,,,,,,,,,,,,,,,,,,,,,,,,,,,,,,,,,,,,,,,0,13,13,8,1,Animals,butterfly,Stimuli/Animals/butterfly/buttenfly_09.jpg,,,,,,,,,,,,,,,,,,,,,,,,,,,,,,,,,,,,,,,,,,,,,,,,,,,,,,,,,,,,,,,,,,,,,,,,,,,,,
,,,,,,,,5e459f9ae4317f085cc0af2d,26,M,R,2020-09-07_16h59.45.163,Hybrid_Search_Task,2020.2.3,Win32,60,,,,,,,,,,,,,,,,,,,,,,,,,,,,,,,,,,,,,,,,,,,,,,,,,,,,,,,,,,,,,,,,,,,,,,,,,,,,,,,,0,14,14,0,1,Animals,butterfly,Stimuli/Animals/butterfly/buttenfly_01.jpg,,,,,,,,,,,,,,,,,,,,,,,,,,,,,,,,,,,,,,,,,,,,,,,,,,,,,,,,,,,,,,,,,,,,,,,,,,,,,
,,,,,,,,5e459f9ae4317f085cc0af2d,26,M,R,2020-09-07_16h59.45.163,Hybrid_Search_Task,2020.2.3,Win32,60,,,,,,,,,,,,,,,,,,,,,,,,,,,,,,,,,,,,,,,,,,,,,,,,,,,,,,,,,,,,,,,,,,,,,,,,,,,,,,,,0,15,15,13,1,Animals,butterfly,Stimuli/Animals/butterfly/buttenfly_14.jpg,,,,,,,,,,,,,,,,,,,,,,,,,,,,,,,,,,,,,,,,,,,,,,,,,,,,,,,,,,,,,,,,,,,,,,,,,,,,,
,,,,,,,,5e459f9ae4317f085cc0af2d,26,M,R,2020-09-07_16h59.45.163,Hybrid_Search_Task,2020.2.3,Win32,60,,,,,,,,,,,,,,,,,,,,,,,,,,,,,,,,,,,,,,,,,,,,,,,,,,,,,,,,,,,,,,,,,,,,,,,,,,,,,,,,0,16,16,10,1,Animals,butterfly,Stimuli/Animals/butterfly/buttenfly_11.jpg,,,,,,,,,,,,,,,,,,,,,,,,,,,,,,,,,,,,,,,,,,,,,,,,,,,,,,,,,,,,,,,,,,,,,,,,,,,,,
,,,,,,,,5e459f9ae4317f085cc0af2d,26,M,R,2020-09-07_16h59.45.163,Hybrid_Search_Task,2020.2.3,Win32,60,,,,,,,,,,,,,,,,,,,,,,,,,,,,,,,,,,,,,,,,,,,,,,,,,,,,,,,,,,,,,,,,,,,,,,,,,,,,,,,,,,,,,,,,0,10,10,2,1,StimList/butterfly.xls,,,,,,,,,,,,,,,,,,,,,,,,,,,,,,,,,,,,,,,,,,,,,,,,,,,,,,,,,,,,,,,,,,,,,,,
,,,,,,,,5e459f9ae4317f085cc0af2d,26,M,R,2020-09-07_16h59.45.163,Hybrid_Search_Task,2020.2.3,Win32,60,,,,,,,,,,,,,,,,,,,,,,,,,,,,,,,,,,,,,,,,,,,,,,,,,,,,,,,,,,,,,,,,,,,,,,,,,,,,,,,,0,0,0,0,1,Animals,rat,Stimuli/Animals/rat/rat_01.jpg,,,,,,,,,,,,,,,,,,,,,,,,,,,,,,,,,,,,,,,,,,,,,,,,,,,,,,,,,,,,,,,,,,,,,,,,,,,,,
,,,,,,,,5e459f9ae4317f085cc0af2d,26,M,R,2020-09-07_16h59.45.163,Hybrid_Search_Task,2020.2.3,Win32,60,,,,,,,,,,,,,,,,,,,,,,,,,,,,,,,,,,,,,,,,,,,,,,,,,,,,,,,,,,,,,,,,,,,,,,,,,,,,,,,,0,1,1,4,1,Animals,rat,Stimuli/Animals/rat/rat_05.jpg,,,,,,,,,,,,,,,,,,,,,,,,,,,,,,,,,,,,,,,,,,,,,,,,,,,,,,,,,,,,,,,,,,,,,,,,,,,,,
,,,,,,,,5e459f9ae4317f085cc0af2d,26,M,R,2020-09-07_16h59.45.163,Hybrid_Search_Task,2020.2.3,Win32,60,,,,,,,,,,,,,,,,,,,,,,,,,,,,,,,,,,,,,,,,,,,,,,,,,,,,,,,,,,,,,,,,,,,,,,,,,,,,,,,,0,2,2,13,1,Animals,rat,Stimuli/Animals/rat/rat_14.jpg,,,,,,,,,,,,,,,,,,,,,,,,,,,,,,,,,,,,,,,,,,,,,,,,,,,,,,,,,,,,,,,,,,,,,,,,,,,,,
,,,,,,,,5e459f9ae4317f085cc0af2d,26,M,R,2020-09-07_16h59.45.163,Hybrid_Search_Task,2020.2.3,Win32,60,,,,,,,,,,,,,,,,,,,,,,,,,,,,,,,,,,,,,,,,,,,,,,,,,,,,,,,,,,,,,,,,,,,,,,,,,,,,,,,,0,3,3,12,1,Animals,rat,Stimuli/Animals/rat/rat_13.jpg,,,,,,,,,,,,,,,,,,,,,,,,,,,,,,,,,,,,,,,,,,,,,,,,,,,,,,,,,,,,,,,,,,,,,,,,,,,,,
,,,,,,,,5e459f9ae4317f085cc0af2d,26,M,R,2020-09-07_16h59.45.163,Hybrid_Search_Task,2020.2.3,Win32,60,,,,,,,,,,,,,,,,,,,,,,,,,,,,,,,,,,,,,,,,,,,,,,,,,,,,,,,,,,,,,,,,,,,,,,,,,,,,,,,,0,4,4,16,1,Animals,rat,Stimuli/Animals/rat/rat_17.jpg,,,,,,,,,,,,,,,,,,,,,,,,,,,,,,,,,,,,,,,,,,,,,,,,,,,,,,,,,,,,,,,,,,,,,,,,,,,,,
,,,,,,,,5e459f9ae4317f085cc0af2d,26,M,R,2020-09-07_16h59.45.163,Hybrid_Search_Task,2020.2.3,Win32,60,,,,,,,,,,,,,,,,,,,,,,,,,,,,,,,,,,,,,,,,,,,,,,,,,,,,,,,,,,,,,,,,,,,,,,,,,,,,,,,,0,5,5,1,1,Animals,rat,Stimuli/Animals/rat/rat_02.jpg,,,,,,,,,,,,,,,,,,,,,,,,,,,,,,,,,,,,,,,,,,,,,,,,,,,,,,,,,,,,,,,,,,,,,,,,,,,,,
,,,,,,,,5e459f9ae4317f085cc0af2d,26,M,R,2020-09-07_16h59.45.163,Hybrid_Search_Task,2020.2.3,Win32,60,,,,,,,,,,,,,,,,,,,,,,,,,,,,,,,,,,,,,,,,,,,,,,,,,,,,,,,,,,,,,,,,,,,,,,,,,,,,,,,,0,6,6,15,1,Animals,rat,Stimuli/Animals/rat/rat_16.jpg,,,,,,,,,,,,,,,,,,,,,,,,,,,,,,,,,,,,,,,,,,,,,,,,,,,,,,,,,,,,,,,,,,,,,,,,,,,,,
,,,,,,,,5e459f9ae4317f085cc0af2d,26,M,R,2020-09-07_16h59.45.163,Hybrid_Search_Task,2020.2.3,Win32,60,,,,,,,,,,,,,,,,,,,,,,,,,,,,,,,,,,,,,,,,,,,,,,,,,,,,,,,,,,,,,,,,,,,,,,,,,,,,,,,,0,7,7,10,1,Animals,rat,Stimuli/Animals/rat/rat_11.jpg,,,,,,,,,,,,,,,,,,,,,,,,,,,,,,,,,,,,,,,,,,,,,,,,,,,,,,,,,,,,,,,,,,,,,,,,,,,,,
,,,,,,,,5e459f9ae4317f085cc0af2d,26,M,R,2020-09-07_16h59.45.163,Hybrid_Search_Task,2020.2.3,Win32,60,,,,,,,,,,,,,,,,,,,,,,,,,,,,,,,,,,,,,,,,,,,,,,,,,,,,,,,,,,,,,,,,,,,,,,,,,,,,,,,,0,8,8,9,1,Animals,rat,Stimuli/Animals/rat/rat_10.jpg,,,,,,,,,,,,,,,,,,,,,,,,,,,,,,,,,,,,,,,,,,,,,,,,,,,,,,,,,,,,,,,,,,,,,,,,,,,,,
,,,,,,,,5e459f9ae4317f085cc0af2d,26,M,R,2020-09-07_16h59.45.163,Hybrid_Search_Task,2020.2.3,Win32,60,,,,,,,,,,,,,,,,,,,,,,,,,,,,,,,,,,,,,,,,,,,,,,,,,,,,,,,,,,,,,,,,,,,,,,,,,,,,,,,,0,9,9,7,1,Animals,rat,Stimuli/Animals/rat/rat_08.jpg,,,,,,,,,,,,,,,,,,,,,,,,,,,,,,,,,,,,,,,,,,,,,,,,,,,,,,,,,,,,,,,,,,,,,,,,,,,,,
,,,,,,,,5e459f9ae4317f085cc0af2d,26,M,R,2020-09-07_16h59.45.163,Hybrid_Search_Task,2020.2.3,Win32,60,,,,,,,,,,,,,,,,,,,,,,,,,,,,,,,,,,,,,,,,,,,,,,,,,,,,,,,,,,,,,,,,,,,,,,,,,,,,,,,,0,10,10,5,1,Animals,rat,Stimuli/Animals/rat/rat_06.jpg,,,,,,,,,,,,,,,,,,,,,,,,,,,,,,,,,,,,,,,,,,,,,,,,,,,,,,,,,,,,,,,,,,,,,,,,,,,,,
,,,,,,,,5e459f9ae4317f085cc0af2d,26,M,R,2020-09-07_16h59.45.163,Hybrid_Search_Task,2020.2.3,Win32,60,,,,,,,,,,,,,,,,,,,,,,,,,,,,,,,,,,,,,,,,,,,,,,,,,,,,,,,,,,,,,,,,,,,,,,,,,,,,,,,,0,11,11,6,1,Animals,rat,Stimuli/Animals/rat/rat_07.jpg,,,,,,,,,,,,,,,,,,,,,,,,,,,,,,,,,,,,,,,,,,,,,,,,,,,,,,,,,,,,,,,,,,,,,,,,,,,,,
,,,,,,,,5e459f9ae4317f085cc0af2d,26,M,R,2020-09-07_16h59.45.163,Hybrid_Search_Task,2020.2.3,Win32,60,,,,,,,,,,,,,,,,,,,,,,,,,,,,,,,,,,,,,,,,,,,,,,,,,,,,,,,,,,,,,,,,,,,,,,,,,,,,,,,,0,12,12,2,1,Animals,rat,Stimuli/Animals/rat/rat_03.jpg,,,,,,,,,,,,,,,,,,,,,,,,,,,,,,,,,,,,,,,,,,,,,,,,,,,,,,,,,,,,,,,,,,,,,,,,,,,,,
,,,,,,,,5e459f9ae4317f085cc0af2d,26,M,R,2020-09-07_16h59.45.163,Hybrid_Search_Task,2020.2.3,Win32,60,,,,,,,,,,,,,,,,,,,,,,,,,,,,,,,,,,,,,,,,,,,,,,,,,,,,,,,,,,,,,,,,,,,,,,,,,,,,,,,,0,13,13,14,1,Animals,rat,Stimuli/Animals/rat/rat_15.jpg,,,,,,,,,,,,,,,,,,,,,,,,,,,,,,,,,,,,,,,,,,,,,,,,,,,,,,,,,,,,,,,,,,,,,,,,,,,,,
,,,,,,,,5e459f9ae4317f085cc0af2d,26,M,R,2020-09-07_16h59.45.163,Hybrid_Search_Task,2020.2.3,Win32,60,,,,,,,,,,,,,,,,,,,,,,,,,,,,,,,,,,,,,,,,,,,,,,,,,,,,,,,,,,,,,,,,,,,,,,,,,,,,,,,,0,14,14,11,1,Animals,rat,Stimuli/Animals/rat/rat_12.jpg,,,,,,,,,,,,,,,,,,,,,,,,,,,,,,,,,,,,,,,,,,,,,,,,,,,,,,,,,,,,,,,,,,,,,,,,,,,,,
,,,,,,,,5e459f9ae4317f085cc0af2d,26,M,R,2020-09-07_16h59.45.163,Hybrid_Search_Task,2020.2.3,Win32,60,,,,,,,,,,,,,,,,,,,,,,,,,,,,,,,,,,,,,,,,,,,,,,,,,,,,,,,,,,,,,,,,,,,,,,,,,,,,,,,,0,15,15,3,1,Animals,rat,Stimuli/Animals/rat/rat_04.jpg,,,,,,,,,,,,,,,,,,,,,,,,,,,,,,,,,,,,,,,,,,,,,,,,,,,,,,,,,,,,,,,,,,,,,,,,,,,,,
,,,,,,,,5e459f9ae4317f085cc0af2d,26,M,R,2020-09-07_16h59.45.163,Hybrid_Search_Task,2020.2.3,Win32,60,,,,,,,,,,,,,,,,,,,,,,,,,,,,,,,,,,,,,,,,,,,,,,,,,,,,,,,,,,,,,,,,,,,,,,,,,,,,,,,,0,16,16,8,1,Animals,rat,Stimuli/Animals/rat/rat_09.jpg,,,,,,,,,,,,,,,,,,,,,,,,,,,,,,,,,,,,,,,,,,,,,,,,,,,,,,,,,,,,,,,,,,,,,,,,,,,,,
,,,,,,,,5e459f9ae4317f085cc0af2d,26,M,R,2020-09-07_16h59.45.163,Hybrid_Search_Task,2020.2.3,Win32,60,,,,,,,,,,,,,,,,,,,,,,,,,,,,,,,,,,,,,,,,,,,,,,,,,,,,,,,,,,,,,,,,,,,,,,,,,,,,,,,,,,,,,,,,0,11,11,22,1,StimList/rat.xls,,,,,,,,,,,,,,,,,,,,,,,,,,,,,,,,,,,,,,,,,,,,,,,,,,,,,,,,,,,,,,,,,,,,,,,
,,,,,,,,5e459f9ae4317f085cc0af2d,26,M,R,2020-09-07_16h59.45.163,Hybrid_Search_Task,2020.2.3,Win32,60,,,,,,,,,,,,,,,,,,,,,,,,,,,,,,,,,,,,,,,,,,,,,,,,,,,,,,,,,,,,,,,,,,,,,,,,,,,,,,,,0,0,0,3,1,Animals,marsupialia_australia,Stimuli/Animals/marsupialia_australia/marsupialia_04.jpg,,,,,,,,,,,,,,,,,,,,,,,,,,,,,,,,,,,,,,,,,,,,,,,,,,,,,,,,,,,,,,,,,,,,,,,,,,,,,
,,,,,,,,5e459f9ae4317f085cc0af2d,26,M,R,2020-09-07_16h59.45.163,Hybrid_Search_Task,2020.2.3,Win32,60,,,,,,,,,,,,,,,,,,,,,,,,,,,,,,,,,,,,,,,,,,,,,,,,,,,,,,,,,,,,,,,,,,,,,,,,,,,,,,,,0,1,1,9,1,Animals,marsupialia_australia,Stimuli/Animals/marsupialia_australia/marsupialia_10.jpg,,,,,,,,,,,,,,,,,,,,,,,,,,,,,,,,,,,,,,,,,,,,,,,,,,,,,,,,,,,,,,,,,,,,,,,,,,,,,
,,,,,,,,5e459f9ae4317f085cc0af2d,26,M,R,2020-09-07_16h59.45.163,Hybrid_Search_Task,2020.2.3,Win32,60,,,,,,,,,,,,,,,,,,,,,,,,,,,,,,,,,,,,,,,,,,,,,,,,,,,,,,,,,,,,,,,,,,,,,,,,,,,,,,,,0,2,2,0,1,Animals,marsupialia_australia,Stimuli/Animals/marsupialia_australia/marsupialia_01.jpg,,,,,,,,,,,,,,,,,,,,,,,,,,,,,,,,,,,,,,,,,,,,,,,,,,,,,,,,,,,,,,,,,,,,,,,,,,,,,
,,,,,,,,5e459f9ae4317f085cc0af2d,26,M,R,2020-09-07_16h59.45.163,Hybrid_Search_Task,2020.2.3,Win32,60,,,,,,,,,,,,,,,,,,,,,,,,,,,,,,,,,,,,,,,,,,,,,,,,,,,,,,,,,,,,,,,,,,,,,,,,,,,,,,,,0,3,3,10,1,Animals,marsupialia_australia,Stimuli/Animals/marsupialia_australia/marsupialia_11.jpg,,,,,,,,,,,,,,,,,,,,,,,,,,,,,,,,,,,,,,,,,,,,,,,,,,,,,,,,,,,,,,,,,,,,,,,,,,,,,
,,,,,,,,5e459f9ae4317f085cc0af2d,26,M,R,2020-09-07_16h59.45.163,Hybrid_Search_Task,2020.2.3,Win32,60,,,,,,,,,,,,,,,,,,,,,,,,,,,,,,,,,,,,,,,,,,,,,,,,,,,,,,,,,,,,,,,,,,,,,,,,,,,,,,,,0,4,4,14,1,Animals,marsupialia_australia,Stimuli/Animals/marsupialia_australia/marsupialia_15.jpg,,,,,,,,,,,,,,,,,,,,,,,,,,,,,,,,,,,,,,,,,,,,,,,,,,,,,,,,,,,,,,,,,,,,,,,,,,,,,
,,,,,,,,5e459f9ae4317f085cc0af2d,26,M,R,2020-09-07_16h59.45.163,Hybrid_Search_Task,2020.2.3,Win32,60,,,,,,,,,,,,,,,,,,,,,,,,,,,,,,,,,,,,,,,,,,,,,,,,,,,,,,,,,,,,,,,,,,,,,,,,,,,,,,,,0,5,5,11,1,Animals,marsupialia_australia,Stimuli/Animals/marsupialia_australia/marsupialia_12.jpg,,,,,,,,,,,,,,,,,,,,,,,,,,,,,,,,,,,,,,,,,,,,,,,,,,,,,,,,,,,,,,,,,,,,,,,,,,,,,
,,,,,,,,5e459f9ae4317f085cc0af2d,26,M,R,2020-09-07_16h59.45.163,Hybrid_Search_Task,2020.2.3,Win32,60,,,,,,,,,,,,,,,,,,,,,,,,,,,,,,,,,,,,,,,,,,,,,,,,,,,,,,,,,,,,,,,,,,,,,,,,,,,,,,,,0,6,6,13,1,Animals,marsupialia_australia,Stimuli/Animals/marsupialia_australia/marsupialia_14.jpg,,,,,,,,,,,,,,,,,,,,,,,,,,,,,,,,,,,,,,,,,,,,,,,,,,,,,,,,,,,,,,,,,,,,,,,,,,,,,
,,,,,,,,5e459f9ae4317f085cc0af2d,26,M,R,2020-09-07_16h59.45.163,Hybrid_Search_Task,2020.2.3,Win32,60,,,,,,,,,,,,,,,,,,,,,,,,,,,,,,,,,,,,,,,,,,,,,,,,,,,,,,,,,,,,,,,,,,,,,,,,,,,,,,,,0,7,7,5,1,Animals,marsupialia_australia,Stimuli/Animals/marsupialia_australia/marsupialia_06.jpg,,,,,,,,,,,,,,,,,,,,,,,,,,,,,,,,,,,,,,,,,,,,,,,,,,,,,,,,,,,,,,,,,,,,,,,,,,,,,
,,,,,,,,5e459f9ae4317f085cc0af2d,26,M,R,2020-09-07_16h59.45.163,Hybrid_Search_Task,2020.2.3,Win32,60,,,,,,,,,,,,,,,,,,,,,,,,,,,,,,,,,,,,,,,,,,,,,,,,,,,,,,,,,,,,,,,,,,,,,,,,,,,,,,,,0,8,8,12,1,Animals,marsupialia_australia,Stimuli/Animals/marsupialia_australia/marsupialia_13.jpg,,,,,,,,,,,,,,,,,,,,,,,,,,,,,,,,,,,,,,,,,,,,,,,,,,,,,,,,,,,,,,,,,,,,,,,,,,,,,
,,,,,,,,5e459f9ae4317f085cc0af2d,26,M,R,2020-09-07_16h59.45.163,Hybrid_Search_Task,2020.2.3,Win32,60,,,,,,,,,,,,,,,,,,,,,,,,,,,,,,,,,,,,,,,,,,,,,,,,,,,,,,,,,,,,,,,,,,,,,,,,,,,,,,,,0,9,9,2,1,Animals,marsupialia_australia,Stimuli/Animals/marsupialia_australia/marsupialia_03.jpg,,,,,,,,,,,,,,,,,,,,,,,,,,,,,,,,,,,,,,,,,,,,,,,,,,,,,,,,,,,,,,,,,,,,,,,,,,,,,
,,,,,,,,5e459f9ae4317f085cc0af2d,26,M,R,2020-09-07_16h59.45.163,Hybrid_Search_Task,2020.2.3,Win32,60,,,,,,,,,,,,,,,,,,,,,,,,,,,,,,,,,,,,,,,,,,,,,,,,,,,,,,,,,,,,,,,,,,,,,,,,,,,,,,,,0,10,10,8,1,Animals,marsupialia_australia,Stimuli/Animals/marsupialia_australia/marsupialia_09.jpg,,,,,,,,,,,,,,,,,,,,,,,,,,,,,,,,,,,,,,,,,,,,,,,,,,,,,,,,,,,,,,,,,,,,,,,,,,,,,
,,,,,,,,5e459f9ae4317f085cc0af2d,26,M,R,2020-09-07_16h59.45.163,Hybrid_Search_Task,2020.2.3,Win32,60,,,,,,,,,,,,,,,,,,,,,,,,,,,,,,,,,,,,,,,,,,,,,,,,,,,,,,,,,,,,,,,,,,,,,,,,,,,,,,,,0,11,11,15,1,Animals,marsupialia_australia,Stimuli/Animals/marsupialia_australia/marsupialia_16.jpg,,,,,,,,,,,,,,,,,,,,,,,,,,,,,,,,,,,,,,,,,,,,,,,,,,,,,,,,,,,,,,,,,,,,,,,,,,,,,
,,,,,,,,5e459f9ae4317f085cc0af2d,26,M,R,2020-09-07_16h59.45.163,Hybrid_Search_Task,2020.2.3,Win32,60,,,,,,,,,,,,,,,,,,,,,,,,,,,,,,,,,,,,,,,,,,,,,,,,,,,,,,,,,,,,,,,,,,,,,,,,,,,,,,,,0,12,12,7,1,Animals,marsupialia_australia,Stimuli/Animals/marsupialia_australia/marsupialia_08.jpg,,,,,,,,,,,,,,,,,,,,,,,,,,,,,,,,,,,,,,,,,,,,,,,,,,,,,,,,,,,,,,,,,,,,,,,,,,,,,
,,,,,,,,5e459f9ae4317f085cc0af2d,26,M,R,2020-09-07_16h59.45.163,Hybrid_Search_Task,2020.2.3,Win32,60,,,,,,,,,,,,,,,,,,,,,,,,,,,,,,,,,,,,,,,,,,,,,,,,,,,,,,,,,,,,,,,,,,,,,,,,,,,,,,,,0,13,13,16,1,Animals,marsupialia_australia,Stimuli/Animals/marsupialia_australia/marsupialia_17.jpg,,,,,,,,,,,,,,,,,,,,,,,,,,,,,,,,,,,,,,,,,,,,,,,,,,,,,,,,,,,,,,,,,,,,,,,,,,,,,
,,,,,,,,5e459f9ae4317f085cc0af2d,26,M,R,2020-09-07_16h59.45.163,Hybrid_Search_Task,2020.2.3,Win32,60,,,,,,,,,,,,,,,,,,,,,,,,,,,,,,,,,,,,,,,,,,,,,,,,,,,,,,,,,,,,,,,,,,,,,,,,,,,,,,,,0,14,14,1,1,Animals,marsupialia_australia,Stimuli/Animals/marsupialia_australia/marsupialia_02.jpg,,,,,,,,,,,,,,,,,,,,,,,,,,,,,,,,,,,,,,,,,,,,,,,,,,,,,,,,,,,,,,,,,,,,,,,,,,,,,
,,,,,,,,5e459f9ae4317f085cc0af2d,26,M,R,2020-09-07_16h59.45.163,Hybrid_Search_Task,2020.2.3,Win32,60,,,,,,,,,,,,,,,,,,,,,,,,,,,,,,,,,,,,,,,,,,,,,,,,,,,,,,,,,,,,,,,,,,,,,,,,,,,,,,,,0,15,15,6,1,Animals,marsupialia_australia,Stimuli/Animals/marsupialia_australia/marsupialia_07.jpg,,,,,,,,,,,,,,,,,,,,,,,,,,,,,,,,,,,,,,,,,,,,,,,,,,,,,,,,,,,,,,,,,,,,,,,,,,,,,
,,,,,,,,5e459f9ae4317f085cc0af2d,26,M,R,2020-09-07_16h59.45.163,Hybrid_Search_Task,2020.2.3,Win32,60,,,,,,,,,,,,,,,,,,,,,,,,,,,,,,,,,,,,,,,,,,,,,,,,,,,,,,,,,,,,,,,,,,,,,,,,,,,,,,,,0,16,16,4,1,Animals,marsupialia_australia,Stimuli/Animals/marsupialia_australia/marsupialia_05.jpg,,,,,,,,,,,,,,,,,,,,,,,,,,,,,,,,,,,,,,,,,,,,,,,,,,,,,,,,,,,,,,,,,,,,,,,,,,,,,
,,,,,,,,5e459f9ae4317f085cc0af2d,26,M,R,2020-09-07_16h59.45.163,Hybrid_Search_Task,2020.2.3,Win32,60,,,,,,,,,,,,,,,,,,,,,,,,,,,,,,,,,,,,,,,,,,,,,,,,,,,,,,,,,,,,,,,,,,,,,,,,,,,,,,,,,,,,,,,,0,12,12,15,1,StimList/marsupialia_australia.xls,,,,,,,,,,,,,,,,,,,,,,,,,,,,,,,,,,,,,,,,,,,,,,,,,,,,,,,,,,,,,,,,,,,,,,,
,,,,,,,,5e459f9ae4317f085cc0af2d,26,M,R,2020-09-07_16h59.45.163,Hybrid_Search_Task,2020.2.3,Win32,60,,,,,,,,,,,,,,,,,,,,,,,,,,,,,,,,,,,,,,,,,,,,,,,,,,,,,,,,,,,,,,,,,,,,,,,,,,,,,,,,0,0,0,2,1,Animals,seashell,Stimuli/Animals/seashell/seashell_03.jpg,,,,,,,,,,,,,,,,,,,,,,,,,,,,,,,,,,,,,,,,,,,,,,,,,,,,,,,,,,,,,,,,,,,,,,,,,,,,,
,,,,,,,,5e459f9ae4317f085cc0af2d,26,M,R,2020-09-07_16h59.45.163,Hybrid_Search_Task,2020.2.3,Win32,60,,,,,,,,,,,,,,,,,,,,,,,,,,,,,,,,,,,,,,,,,,,,,,,,,,,,,,,,,,,,,,,,,,,,,,,,,,,,,,,,0,1,1,5,1,Animals,seashell,Stimuli/Animals/seashell/seashell_06.jpg,,,,,,,,,,,,,,,,,,,,,,,,,,,,,,,,,,,,,,,,,,,,,,,,,,,,,,,,,,,,,,,,,,,,,,,,,,,,,
,,,,,,,,5e459f9ae4317f085cc0af2d,26,M,R,2020-09-07_16h59.45.163,Hybrid_Search_Task,2020.2.3,Win32,60,,,,,,,,,,,,,,,,,,,,,,,,,,,,,,,,,,,,,,,,,,,,,,,,,,,,,,,,,,,,,,,,,,,,,,,,,,,,,,,,0,2,2,11,1,Animals,seashell,Stimuli/Animals/seashell/seashell_12.jpg,,,,,,,,,,,,,,,,,,,,,,,,,,,,,,,,,,,,,,,,,,,,,,,,,,,,,,,,,,,,,,,,,,,,,,,,,,,,,
,,,,,,,,5e459f9ae4317f085cc0af2d,26,M,R,2020-09-07_16h59.45.163,Hybrid_Search_Task,2020.2.3,Win32,60,,,,,,,,,,,,,,,,,,,,,,,,,,,,,,,,,,,,,,,,,,,,,,,,,,,,,,,,,,,,,,,,,,,,,,,,,,,,,,,,0,3,3,1,1,Animals,seashell,Stimuli/Animals/seashell/seashell_02.jpg,,,,,,,,,,,,,,,,,,,,,,,,,,,,,,,,,,,,,,,,,,,,,,,,,,,,,,,,,,,,,,,,,,,,,,,,,,,,,
,,,,,,,,5e459f9ae4317f085cc0af2d,26,M,R,2020-09-07_16h59.45.163,Hybrid_Search_Task,2020.2.3,Win32,60,,,,,,,,,,,,,,,,,,,,,,,,,,,,,,,,,,,,,,,,,,,,,,,,,,,,,,,,,,,,,,,,,,,,,,,,,,,,,,,,0,4,4,13,1,Animals,seashell,Stimuli/Animals/seashell/seashell_14.jpg,,,,,,,,,,,,,,,,,,,,,,,,,,,,,,,,,,,,,,,,,,,,,,,,,,,,,,,,,,,,,,,,,,,,,,,,,,,,,
,,,,,,,,5e459f9ae4317f085cc0af2d,26,M,R,2020-09-07_16h59.45.163,Hybrid_Search_Task,2020.2.3,Win32,60,,,,,,,,,,,,,,,,,,,,,,,,,,,,,,,,,,,,,,,,,,,,,,,,,,,,,,,,,,,,,,,,,,,,,,,,,,,,,,,,0,5,5,15,1,Animals,seashell,Stimuli/Animals/seashell/seashell_16.jpg,,,,,,,,,,,,,,,,,,,,,,,,,,,,,,,,,,,,,,,,,,,,,,,,,,,,,,,,,,,,,,,,,,,,,,,,,,,,,
,,,,,,,,5e459f9ae4317f085cc0af2d,26,M,R,2020-09-07_16h59.45.163,Hybrid_Search_Task,2020.2.3,Win32,60,,,,,,,,,,,,,,,,,,,,,,,,,,,,,,,,,,,,,,,,,,,,,,,,,,,,,,,,,,,,,,,,,,,,,,,,,,,,,,,,0,6,6,8,1,Animals,seashell,Stimuli/Animals/seashell/seashell_09.jpg,,,,,,,,,,,,,,,,,,,,,,,,,,,,,,,,,,,,,,,,,,,,,,,,,,,,,,,,,,,,,,,,,,,,,,,,,,,,,
,,,,,,,,5e459f9ae4317f085cc0af2d,26,M,R,2020-09-07_16h59.45.163,Hybrid_Search_Task,2020.2.3,Win32,60,,,,,,,,,,,,,,,,,,,,,,,,,,,,,,,,,,,,,,,,,,,,,,,,,,,,,,,,,,,,,,,,,,,,,,,,,,,,,,,,0,7,7,0,1,Animals,seashell,Stimuli/Animals/seashell/seashell_01.jpg,,,,,,,,,,,,,,,,,,,,,,,,,,,,,,,,,,,,,,,,,,,,,,,,,,,,,,,,,,,,,,,,,,,,,,,,,,,,,
,,,,,,,,5e459f9ae4317f085cc0af2d,26,M,R,2020-09-07_16h59.45.163,Hybrid_Search_Task,2020.2.3,Win32,60,,,,,,,,,,,,,,,,,,,,,,,,,,,,,,,,,,,,,,,,,,,,,,,,,,,,,,,,,,,,,,,,,,,,,,,,,,,,,,,,0,8,8,4,1,Animals,seashell,Stimuli/Animals/seashell/seashell_05.jpg,,,,,,,,,,,,,,,,,,,,,,,,,,,,,,,,,,,,,,,,,,,,,,,,,,,,,,,,,,,,,,,,,,,,,,,,,,,,,
,,,,,,,,5e459f9ae4317f085cc0af2d,26,M,R,2020-09-07_16h59.45.163,Hybrid_Search_Task,2020.2.3,Win32,60,,,,,,,,,,,,,,,,,,,,,,,,,,,,,,,,,,,,,,,,,,,,,,,,,,,,,,,,,,,,,,,,,,,,,,,,,,,,,,,,0,9,9,16,1,Animals,seashell,Stimuli/Animals/seashell/seashell_17.jpg,,,,,,,,,,,,,,,,,,,,,,,,,,,,,,,,,,,,,,,,,,,,,,,,,,,,,,,,,,,,,,,,,,,,,,,,,,,,,
,,,,,,,,5e459f9ae4317f085cc0af2d,26,M,R,2020-09-07_16h59.45.163,Hybrid_Search_Task,2020.2.3,Win32,60,,,,,,,,,,,,,,,,,,,,,,,,,,,,,,,,,,,,,,,,,,,,,,,,,,,,,,,,,,,,,,,,,,,,,,,,,,,,,,,,0,10,10,12,1,Animals,seashell,Stimuli/Animals/seashell/seashell_13.jpg,,,,,,,,,,,,,,,,,,,,,,,,,,,,,,,,,,,,,,,,,,,,,,,,,,,,,,,,,,,,,,,,,,,,,,,,,,,,,
,,,,,,,,5e459f9ae4317f085cc0af2d,26,M,R,2020-09-07_16h59.45.163,Hybrid_Search_Task,2020.2.3,Win32,60,,,,,,,,,,,,,,,,,,,,,,,,,,,,,,,,,,,,,,,,,,,,,,,,,,,,,,,,,,,,,,,,,,,,,,,,,,,,,,,,0,11,11,14,1,Animals,seashell,Stimuli/Animals/seashell/seashell_15.jpg,,,,,,,,,,,,,,,,,,,,,,,,,,,,,,,,,,,,,,,,,,,,,,,,,,,,,,,,,,,,,,,,,,,,,,,,,,,,,
,,,,,,,,5e459f9ae4317f085cc0af2d,26,M,R,2020-09-07_16h59.45.163,Hybrid_Search_Task,2020.2.3,Win32,60,,,,,,,,,,,,,,,,,,,,,,,,,,,,,,,,,,,,,,,,,,,,,,,,,,,,,,,,,,,,,,,,,,,,,,,,,,,,,,,,0,12,12,3,1,Animals,seashell,Stimuli/Animals/seashell/seashell_04.jpg,,,,,,,,,,,,,,,,,,,,,,,,,,,,,,,,,,,,,,,,,,,,,,,,,,,,,,,,,,,,,,,,,,,,,,,,,,,,,
,,,,,,,,5e459f9ae4317f085cc0af2d,26,M,R,2020-09-07_16h59.45.163,Hybrid_Search_Task,2020.2.3,Win32,60,,,,,,,,,,,,,,,,,,,,,,,,,,,,,,,,,,,,,,,,,,,,,,,,,,,,,,,,,,,,,,,,,,,,,,,,,,,,,,,,0,13,13,7,1,Animals,seashell,Stimuli/Animals/seashell/seashell_08.jpg,,,,,,,,,,,,,,,,,,,,,,,,,,,,,,,,,,,,,,,,,,,,,,,,,,,,,,,,,,,,,,,,,,,,,,,,,,,,,
,,,,,,,,5e459f9ae4317f085cc0af2d,26,M,R,2020-09-07_16h59.45.163,Hybrid_Search_Task,2020.2.3,Win32,60,,,,,,,,,,,,,,,,,,,,,,,,,,,,,,,,,,,,,,,,,,,,,,,,,,,,,,,,,,,,,,,,,,,,,,,,,,,,,,,,0,14,14,10,1,Animals,seashell,Stimuli/Animals/seashell/seashell_11.jpg,,,,,,,,,,,,,,,,,,,,,,,,,,,,,,,,,,,,,,,,,,,,,,,,,,,,,,,,,,,,,,,,,,,,,,,,,,,,,
,,,,,,,,5e459f9ae4317f085cc0af2d,26,M,R,2020-09-07_16h59.45.163,Hybrid_Search_Task,2020.2.3,Win32,60,,,,,,,,,,,,,,,,,,,,,,,,,,,,,,,,,,,,,,,,,,,,,,,,,,,,,,,,,,,,,,,,,,,,,,,,,,,,,,,,0,15,15,6,1,Animals,seashell,Stimuli/Animals/seashell/seashell_07.jpg,,,,,,,,,,,,,,,,,,,,,,,,,,,,,,,,,,,,,,,,,,,,,,,,,,,,,,,,,,,,,,,,,,,,,,,,,,,,,
,,,,,,,,5e459f9ae4317f085cc0af2d,26,M,R,2020-09-07_16h59.45.163,Hybrid_Search_Task,2020.2.3,Win32,60,,,,,,,,,,,,,,,,,,,,,,,,,,,,,,,,,,,,,,,,,,,,,,,,,,,,,,,,,,,,,,,,,,,,,,,,,,,,,,,,0,16,16,9,1,Animals,seashell,Stimuli/Animals/seashell/seashell_10.jpg,,,,,,,,,,,,,,,,,,,,,,,,,,,,,,,,,,,,,,,,,,,,,,,,,,,,,,,,,,,,,,,,,,,,,,,,,,,,,
,,,,,,,,5e459f9ae4317f085cc0af2d,26,M,R,2020-09-07_16h59.45.163,Hybrid_Search_Task,2020.2.3,Win32,60,,,,,,,,,,,,,,,,,,,,,,,,,,,,,,,,,,,,,,,,,,,,,,,,,,,,,,,,,,,,,,,,,,,,,,,,,,,,,,,,,,,,,,,,0,13,13,24,1,StimList/seashell.xls,,,,,,,,,,,,,,,,,,,,,,,,,,,,,,,,,,,,,,,,,,,,,,,,,,,,,,,,,,,,,,,,,,,,,,,
,,,,,,,,5e459f9ae4317f085cc0af2d,26,M,R,2020-09-07_16h59.45.163,Hybrid_Search_Task,2020.2.3,Win32,60,,,,,,,,,,,,,,,,,,,,,,,,,,,,,,,,,,,,,,,,,,,,,,,,,,,,,,,,,,,,,,,,,,,,,,,,,,,,,,,,0,0,0,9,1,Animals,panthera,Stimuli/Animals/panthera/panthera_10.jpg,,,,,,,,,,,,,,,,,,,,,,,,,,,,,,,,,,,,,,,,,,,,,,,,,,,,,,,,,,,,,,,,,,,,,,,,,,,,,
,,,,,,,,5e459f9ae4317f085cc0af2d,26,M,R,2020-09-07_16h59.45.163,Hybrid_Search_Task,2020.2.3,Win32,60,,,,,,,,,,,,,,,,,,,,,,,,,,,,,,,,,,,,,,,,,,,,,,,,,,,,,,,,,,,,,,,,,,,,,,,,,,,,,,,,0,1,1,14,1,Animals,panthera,Stimuli/Animals/panthera/panthera_15.jpg,,,,,,,,,,,,,,,,,,,,,,,,,,,,,,,,,,,,,,,,,,,,,,,,,,,,,,,,,,,,,,,,,,,,,,,,,,,,,
